* Measurement data measured by REW V5.19
* Source: ASIO MOTU M Series, In 1
* Format: 1M Log Swept Sine, 1 sweep at -3.0 dBFS  With no timing reference
* Dated: 23 Oct, 2020 5:39:08 PM
* REW Settings:
*  C-weighting compensation: Off
*  Target level: 75.0 dB
* Note: ; 
* Measurement: Oct 23 17:39:08
* Smoothing: None
* Frequency Step: 1/48 octave
* Start Frequency: 10.1 Hz
*
* Freq(Hz), SPL(dB), Phase(degrees)
10.145, 53.270, -58.159
10.293, 53.405, -58.864
10.443, 53.543, -59.660
10.595, 53.697, -60.402
10.749, 53.857, -61.187
10.905, 54.020, -62.043
11.064, 54.183, -62.960
11.225, 54.341, -63.935
11.388, 54.493, -64.961
11.554, 54.634, -66.001
11.722, 54.766, -67.051
11.892, 54.888, -68.064
12.065, 55.001, -69.039
12.241, 55.110, -69.942
12.419, 55.216, -70.778
12.599, 55.326, -71.541
12.782, 55.441, -72.247
12.968, 55.564, -72.911
13.157, 55.697, -73.563
13.348, 55.839, -74.219
13.543, 55.987, -74.910
13.740, 56.141, -75.642
13.939, 56.295, -76.427
14.142, 56.448, -77.260
14.348, 56.596, -78.134
14.557, 56.738, -79.031
14.768, 56.872, -79.944
14.983, 57.000, -80.852
15.201, 57.121, -81.748
15.422, 57.237, -82.625
15.646, 57.349, -83.476
15.874, 57.457, -84.300
16.105, 57.562, -85.095
16.339, 57.666, -85.861
16.577, 57.770, -86.598
16.818, 57.874, -87.309
17.063, 57.980, -87.999
17.311, 58.089, -88.678
17.563, 58.200, -89.356
17.818, 58.315, -90.042
18.077, 58.431, -90.747
18.340, 58.547, -91.474
18.607, 58.661, -92.221
18.877, 58.773, -92.983
19.152, 58.882, -93.752
19.431, 58.989, -94.521
19.713, 59.093, -95.288
20.000, 59.197, -96.052
20.291, 59.299, -96.814
20.586, 59.401, -97.575
20.885, 59.501, -98.333
21.189, 59.600, -99.086
21.497, 59.698, -99.832
21.810, 59.797, -100.574
22.127, 59.897, -101.316
22.449, 59.996, -102.064
22.776, 60.095, -102.820
23.107, 60.191, -103.583
23.443, 60.286, -104.344
23.784, 60.378, -105.098
24.130, 60.469, -105.842
24.481, 60.559, -106.580
24.837, 60.649, -107.315
25.198, 60.738, -108.047
25.565, 60.826, -108.773
25.937, 60.914, -109.491
26.314, 61.003, -110.204
26.697, 61.094, -110.922
27.085, 61.185, -111.657
27.479, 61.275, -112.412
27.879, 61.361, -113.177
28.284, 61.443, -113.938
28.696, 61.523, -114.681
29.113, 61.602, -115.406
29.537, 61.683, -116.122
29.966, 61.765, -116.843
30.402, 61.847, -117.575
30.844, 61.926, -118.318
31.293, 62.002, -119.063
31.748, 62.076, -119.800
32.210, 62.149, -120.523
32.678, 62.223, -121.248
33.154, 62.299, -121.995
33.636, 62.372, -122.781
34.125, 62.438, -123.591
34.621, 62.497, -124.389
35.125, 62.553, -125.154
35.636, 62.611, -125.901
36.154, 62.669, -126.654
36.680, 62.725, -127.407
37.214, 62.780, -128.141
37.755, 62.837, -128.860
38.304, 62.894, -129.583
38.861, 62.948, -130.290
39.427, 63.003, -130.960
40.000, 63.067, -131.638
40.582, 63.130, -132.393
41.172, 63.179, -133.175
41.771, 63.221, -133.895
42.379, 63.273, -134.614
42.995, 63.323, -135.457
43.620, 63.351, -136.329
44.255, 63.372, -137.090
44.898, 63.409, -137.851
45.552, 63.445, -138.738
46.214, 63.469, -139.639
46.886, 63.496, -140.580
47.568, 63.497, -141.718
48.260, 63.425, -142.672
48.962, 63.349, -142.939
49.674, 63.364, -142.943
50.397, 63.419, -143.285
51.130, 63.450, -143.706
51.874, 63.492, -144.030
52.628, 63.544, -144.507
53.394, 63.574, -144.992
54.170, 63.618, -145.363
54.958, 63.684, -145.932
55.758, 63.724, -146.693
56.569, 63.739, -147.378
57.391, 63.756, -147.959
58.226, 63.782, -148.504
59.073, 63.820, -149.025
59.932, 63.879, -149.632
60.804, 63.935, -150.442
61.688, 63.966, -151.296
62.586, 63.995, -152.141
63.496, 64.012, -153.127
64.420, 63.999, -154.066
65.357, 63.996, -154.948
66.307, 63.989, -156.111
67.272, 63.914, -157.446
68.250, 63.769, -158.538
69.243, 63.588, -159.224
70.250, 63.393, -159.480
71.272, 63.198, -159.263
72.309, 63.042, -158.455
73.360, 62.982, -157.351
74.427, 63.006, -156.337
75.510, 63.101, -155.600
76.608, 63.223, -155.378
77.723, 63.329, -155.482
78.853, 63.423, -155.766
80.000, 63.500, -156.196
81.164, 63.567, -156.681
82.344, 63.622, -157.269
83.542, 63.659, -157.839
84.757, 63.693, -158.403
85.990, 63.715, -158.942
87.241, 63.727, -159.444
88.510, 63.734, -159.827
89.797, 63.733, -160.256
91.103, 63.740, -160.527
92.428, 63.742, -160.983
93.773, 63.772, -161.505
95.137, 63.775, -161.854
96.520, 63.853, -163.145
97.924, 63.685, -163.092
99.349, 63.813, -163.289
100.794, 63.763, -163.456
102.260, 63.779, -163.740
103.747, 63.767, -163.901
105.256, 63.773, -164.280
106.787, 63.753, -164.761
108.340, 63.774, -164.792
109.916, 63.789, -165.274
111.515, 63.819, -165.415
113.137, 63.810, -165.641
114.783, 63.832, -166.040
116.452, 63.857, -166.373
118.146, 63.869, -166.897
119.865, 63.890, -167.477
121.608, 63.904, -168.097
123.377, 63.895, -168.817
125.171, 63.857, -169.515
126.992, 63.811, -169.990
128.839, 63.764, -170.668
130.713, 63.698, -171.039
132.615, 63.610, -171.472
134.543, 63.550, -171.735
136.500, 63.506, -171.885
138.486, 63.447, -172.077
140.500, 63.397, -172.380
142.544, 63.338, -172.654
144.617, 63.298, -173.095
146.721, 63.178, -173.103
148.855, 63.095, -173.394
151.020, 63.006, -173.272
153.217, 62.896, -173.080
155.445, 62.812, -172.472
157.706, 62.790, -171.596
160.000, 62.843, -171.304
162.327, 62.901, -171.142
164.688, 62.968, -171.160
167.084, 63.001, -171.558
169.514, 63.043, -171.561
171.980, 63.007, -172.133
174.481, 62.958, -172.749
177.019, 62.799, -173.329
179.594, 62.608, -172.692
182.206, 62.570, -171.523
184.856, 62.625, -170.905
187.545, 62.675, -170.904
190.273, 62.710, -170.891
193.041, 62.725, -170.451
195.849, 62.745, -171.004
198.697, 62.712, -170.916
201.587, 62.719, -171.088
204.520, 62.711, -171.111
207.494, 62.698, -171.129
210.512, 62.691, -171.030
213.574, 62.673, -170.969
216.681, 62.675, -170.926
219.833, 62.681, -170.959
223.030, 62.644, -170.981
226.274, 62.629, -170.891
229.565, 62.616, -171.120
232.905, 62.616, -171.001
236.292, 62.589, -171.102
239.729, 62.581, -170.825
243.216, 62.598, -170.303
246.754, 62.506, -170.610
250.343, 62.547, -170.386
253.984, 62.524, -170.212
257.678, 62.520, -170.745
261.426, 62.519, -170.254
265.229, 62.505, -170.023
269.087, 62.487, -169.899
273.001, 62.494, -169.683
276.972, 62.464, -169.858
281.000, 62.464, -169.350
285.088, 62.465, -169.526
289.234, 62.459, -169.397
293.441, 62.361, -169.113
297.710, 62.412, -169.236
302.040, 62.378, -168.783
306.433, 62.403, -168.824
310.890, 62.385, -168.429
315.412, 62.358, -168.523
320.000, 62.362, -168.006
324.655, 62.336, -167.946
329.377, 62.303, -167.881
334.168, 62.282, -167.800
339.028, 62.309, -167.364
343.959, 62.299, -167.232
348.962, 62.297, -167.153
354.038, 62.276, -166.740
359.188, 62.293, -166.316
364.412, 62.277, -166.018
369.713, 62.266, -165.945
375.090, 62.268, -165.717
380.546, 62.235, -165.418
386.081, 62.238, -164.936
391.697, 62.289, -164.355
397.395, 62.269, -164.539
403.175, 62.243, -164.056
409.039, 62.273, -163.829
414.989, 62.260, -163.480
421.025, 62.283, -163.126
427.149, 62.281, -162.754
433.362, 62.368, -162.510
439.665, 62.359, -162.391
446.060, 62.326, -161.649
452.548, 62.373, -161.391
459.131, 62.346, -161.454
465.809, 62.386, -160.763
472.584, 62.376, -160.539
479.458, 62.363, -160.264
486.432, 62.589, -160.192
493.507, 62.430, -159.455
500.686, 62.415, -158.901
507.968, 62.476, -158.498
515.357, 62.508, -158.071
522.853, 62.530, -157.492
530.458, 62.565, -157.046
538.174, 62.597, -156.730
546.002, 62.674, -156.217
553.943, 62.711, -155.830
562.001, 62.778, -155.583
570.175, 62.816, -155.490
578.469, 62.800, -154.969
586.883, 62.906, -154.410
595.419, 62.985, -154.273
604.080, 63.041, -153.866
612.866, 63.091, -153.861
621.780, 63.165, -153.485
630.824, 63.211, -153.717
640.000, 63.297, -153.052
649.309, 63.363, -152.884
658.753, 63.408, -153.056
668.335, 63.462, -153.099
678.056, 63.446, -153.096
687.919, 63.430, -153.681
697.925, 63.297, -153.396
708.076, 63.264, -152.273
718.376, 63.353, -151.483
728.825, 63.332, -150.332
739.426, 63.492, -149.886
750.181, 63.527, -149.472
761.093, 63.642, -149.220
772.163, 63.724, -148.896
783.394, 63.808, -149.069
794.789, 63.776, -147.949
806.349, 63.939, -147.960
818.078, 63.965, -147.781
829.977, 64.026, -147.715
842.050, 64.051, -146.909
854.297, 64.137, -146.427
866.724, 64.279, -146.814
879.330, 64.326, -146.687
892.120, 64.332, -146.184
905.097, 64.317, -145.728
918.262, 64.348, -144.114
931.618, 64.560, -143.953
945.169, 64.654, -143.667
958.917, 64.817, -143.393
972.864, 64.911, -143.617
987.015, 65.046, -143.547
1001.371, 65.047, -142.710
1015.937, 65.174, -142.746
1030.714, 65.145, -141.982
1045.706, 65.358, -141.096
1060.916, 65.516, -140.837
1076.347, 65.727, -140.657
1092.003, 65.825, -141.383
1107.887, 66.028, -141.151
1124.001, 66.062, -141.259
1140.350, 66.216, -140.913
1156.937, 66.225, -141.257
1173.765, 66.312, -141.855
1190.838, 66.570, -140.896
1208.159, 66.743, -141.979
1225.732, 66.721, -142.743
1243.561, 66.643, -142.563
1261.649, 66.728, -140.460
1280.000, 67.051, -141.117
1298.618, 67.359, -141.028
1317.507, 67.509, -141.674
1336.670, 67.487, -142.653
1356.113, 67.636, -142.317
1375.838, 67.509, -142.710
1395.850, 67.703, -143.078
1416.153, 67.834, -142.467
1436.751, 68.042, -145.138
1457.649, 68.005, -144.165
1478.851, 68.040, -144.975
1500.362, 68.203, -144.696
1522.185, 68.273, -146.912
1544.326, 68.283, -147.452
1566.789, 68.199, -147.881
1589.578, 68.352, -147.489
1612.699, 68.147, -147.843
1636.156, 68.127, -148.036
1659.955, 68.061, -148.802
1684.099, 67.699, -147.387
1708.595, 68.195, -148.253
1733.447, 67.891, -145.261
1758.661, 68.222, -146.501
1784.241, 67.821, -145.072
1810.193, 67.649, -142.464
1836.523, 68.250, -138.891
1863.236, 69.119, -141.109
1890.338, 68.734, -142.813
1917.833, 68.818, -138.394
1945.729, 69.436, -138.315
1974.030, 69.868, -140.179
2002.743, 70.018, -140.698
2031.873, 70.436, -139.725
2061.428, 70.570, -141.439
2091.412, 71.074, -143.623
2121.832, 71.073, -143.841
2152.695, 71.260, -144.948
2184.007, 71.754, -146.026
2215.774, 71.967, -149.744
2248.003, 71.892, -152.111
2280.701, 71.723, -152.765
2313.874, 71.537, -154.688
2347.530, 71.558, -154.993
2381.676, 71.815, -156.084
2416.318, 71.796, -156.040
2451.464, 71.969, -157.597
2487.122, 71.682, -157.098
2523.298, 72.003, -158.488
2560.000, 71.755, -159.072
2597.236, 71.974, -161.380
2635.014, 72.114, -162.721
2673.341, 71.886, -162.618
2712.226, 71.981, -163.519
2751.676, 72.206, -163.035
2791.700, 72.585, -166.032
2832.306, 72.382, -166.837
2873.503, 72.258, -166.915
2915.299, 72.420, -166.861
2957.703, 72.511, -169.009
3000.724, 72.339, -170.568
3044.370, 72.591, -170.573
3088.652, 72.542, -173.655
3133.577, 72.473, -174.874
3179.156, 72.170, -175.096
3225.398, 72.534, -176.587
3272.312, 71.808, -177.427
3319.909, 72.065, -176.451
3368.198, 72.119, -177.995
3417.190, 72.031, 179.908
3466.894, 72.168, -179.449
3517.321, 72.099, 179.161
3568.482, 71.958, 178.300
3620.387, 72.028, 176.656
3673.046, 71.942, 173.822
3726.472, 71.771, 172.839
3780.675, 71.748, 172.335
3835.666, 71.433, 169.214
3891.457, 71.259, 168.429
3948.060, 71.078, 167.763
4005.486, 70.634, 166.944
4063.747, 70.341, 167.212
4122.855, 69.959, 167.428
4182.824, 69.927, 169.676
4243.664, 69.695, 170.041
4305.390, 69.457, 170.909
4368.013, 69.554, 171.969
4431.547, 69.611, 172.970
4496.005, 69.463, 174.593
4561.401, 69.710, 175.461
4627.749, 69.759, 177.296
4695.061, 70.320, 178.039
4763.352, 70.878, 178.133
4832.637, 71.466, 175.060
4902.929, 71.642, 171.521
4974.244, 71.882, 167.551
5046.596, 71.674, 164.206
5120.000, 71.603, 161.215
5194.472, 71.422, 159.292
5270.027, 71.400, 156.087
5346.682, 71.268, 153.829
5424.451, 71.307, 150.480
5503.352, 71.044, 147.492
5583.399, 70.995, 141.799
5664.612, 70.533, 136.776
5747.006, 69.752, 128.787
5830.598, 68.233, 125.180
5915.406, 66.623, 126.876
6001.447, 65.515, 131.941
6088.740, 64.909, 137.596
6177.303, 64.571, 141.863
6267.154, 64.537, 147.343
6358.312, 64.717, 149.597
6450.796, 64.940, 149.338
6544.625, 64.922, 150.353
6639.818, 64.739, 150.588
6736.397, 64.808, 151.679
6834.380, 65.344, 151.975
6933.789, 65.839, 147.277
7034.643, 65.352, 137.817
7136.964, 63.744, 134.626
7240.773, 62.596, 139.039
7346.093, 62.269, 143.723
7452.944, 62.222, 146.411
7561.350, 62.197, 147.199
7671.332, 62.205, 147.406
7782.915, 62.135, 146.553
7896.120, 62.041, 145.752
8010.971, 61.790, 143.918
8127.493, 61.635, 141.595
8245.711, 61.261, 138.364
8365.647, 60.765, 135.077
8487.328, 59.938, 131.757
8610.779, 59.164, 130.392
8736.026, 58.353, 124.079
8863.095, 56.728, 120.808
8992.011, 54.902, 117.815
9122.803, 52.486, 117.911
9255.497, 49.605, 121.422
9390.121, 45.750, 131.927
9526.704, 41.540, 165.045
9665.273, 43.488, -142.553
9805.857, 48.184, -125.279
9948.487, 51.704, -124.035
10093.191, 53.897, -130.030
10240.000, 55.125, -136.677
10388.944, 55.588, -143.356
10540.055, 55.386, -147.862
10693.363, 55.161, -148.293
10848.902, 54.998, -146.975
11006.703, 55.221, -143.450
11166.799, 56.553, -140.511
11329.224, 58.122, -152.521
11494.012, 57.137, -166.329
11661.195, 55.875, -171.627
11830.812, 54.533, -175.293
12002.895, 53.028, -176.020
12177.480, 51.715, -174.020
12354.606, 50.791, -171.623
12534.309, 49.667, -172.786
12716.624, 47.943, -174.266
12901.592, 44.628, -174.130
13089.250, 39.537, -148.186
13279.637, 41.258, -101.070
13472.794, 45.134, -88.093
13668.760, 47.870, -90.203
13867.577, 48.781, -98.466
14069.285, 48.381, -103.761
14273.928, 47.358, -103.221
14481.547, 46.998, -95.973
14692.186, 47.377, -94.791
14905.889, 46.973, -101.545
15122.700, 43.977, -113.027
15342.664, 32.253, -120.009
15565.829, 41.643, 28.821
15792.239, 49.075, 14.829
16021.942, 52.606, 1.189
16254.986, 54.536, -9.706
16491.422, 55.906, -17.359
16731.295, 57.195, -25.040
16974.656, 58.127, -34.238
17221.559, 58.627, -43.185
17472.053, 58.798, -51.877
17726.189, 58.830, -59.489
17984.021, 58.631, -68.267
18245.605, 57.856, -77.532
18510.994, 56.442, -82.995
18780.242, 55.249, -82.944
19053.408, 54.712, -82.987
19330.547, 54.123, -88.133
19611.715, 52.120, -95.576
19896.975, 47.535, -89.598
