* Measurement data measured by REW V5.19
* Source: ASIO MOTU M Series, In 1
* Format: 1M Log Swept Sine, 2 sweeps at -10.0 dBFS  With no timing reference
* Dated: 15 Sep, 2020 2:35:56 PM
* REW Settings:
*  C-weighting compensation: Off
*  Target level: 75.0 dB
* Note: ; 
* Measurement: Sep 15 14:35:56
* Smoothing: None
* Frequency Step: 1/48 octave
* Start Frequency: 10.0 Hz
*
* Freq(Hz), SPL(dB), Phase(degrees)
10.145, 46.713, -48.936
10.293, 46.820, -49.314
10.443, 46.895, -49.276
10.595, 46.987, -48.975
10.749, 47.132, -48.381
10.905, 47.322, -47.567
11.064, 47.582, -46.914
11.225, 47.919, -46.360
11.388, 48.291, -46.233
11.554, 48.702, -46.642
11.722, 49.109, -47.537
11.892, 49.485, -48.999
12.065, 49.817, -50.887
12.241, 50.075, -53.079
12.419, 50.261, -55.500
12.599, 50.361, -57.914
12.782, 50.380, -60.278
12.968, 50.325, -62.338
13.157, 50.205, -64.059
13.348, 50.044, -65.232
13.543, 49.863, -65.863
13.740, 49.697, -65.850
13.939, 49.574, -65.340
14.142, 49.526, -64.366
14.348, 49.566, -63.265
14.557, 49.705, -62.143
14.768, 49.919, -61.360
14.983, 50.200, -60.976
15.201, 50.503, -61.164
15.422, 50.804, -61.868
15.646, 51.076, -63.095
15.874, 51.288, -64.639
16.105, 51.431, -66.396
16.339, 51.491, -68.103
16.577, 51.489, -69.499
16.818, 51.439, -70.423
17.063, 51.399, -70.645
17.311, 51.430, -70.342
17.563, 51.572, -69.686
17.818, 51.860, -69.292
18.077, 52.239, -69.624
18.340, 52.654, -70.905
18.607, 53.020, -73.212
18.877, 53.257, -76.169
19.152, 53.332, -79.332
19.431, 53.233, -82.176
19.713, 52.978, -84.024
20.000, 52.676, -84.213
20.291, 52.487, -82.701
20.586, 52.552, -80.087
20.885, 52.956, -77.602
21.189, 53.600, -76.722
21.497, 54.271, -77.834
21.810, 54.820, -80.535
22.127, 55.155, -84.148
22.449, 55.243, -87.880
22.776, 55.102, -90.954
23.107, 54.803, -92.691
23.443, 54.471, -92.685
23.784, 54.265, -91.109
24.130, 54.292, -88.859
24.481, 54.538, -87.045
24.837, 54.888, -86.310
25.198, 55.219, -86.645
25.565, 55.455, -87.630
25.937, 55.576, -88.723
26.314, 55.617, -89.476
26.697, 55.644, -89.703
27.085, 55.723, -89.577
27.479, 55.879, -89.526
27.879, 56.078, -89.911
28.284, 56.261, -90.754
28.696, 56.398, -91.758
29.113, 56.510, -92.612
29.537, 56.646, -93.328
29.966, 56.820, -94.239
30.402, 56.972, -95.562
30.844, 57.028, -96.991
31.293, 56.984, -97.781
31.748, 56.955, -97.378
32.210, 57.096, -96.245
32.678, 57.424, -95.650
33.154, 57.777, -96.331
33.636, 57.976, -97.770
34.125, 58.004, -98.799
34.621, 57.992, -98.793
35.125, 58.081, -98.262
35.636, 58.253, -98.156
36.154, 58.392, -98.576
36.680, 58.478, -98.887
37.214, 58.609, -98.963
37.755, 58.816, -99.592
38.304, 58.966, -101.155
38.861, 58.951, -102.660
39.427, 58.892, -102.912
40.000, 59.040, -102.467
40.582, 59.371, -103.183
41.172, 59.565, -105.396
41.771, 59.476, -107.193
42.379, 59.339, -106.814
42.995, 59.505, -105.614
43.620, 59.825, -106.194
44.255, 59.875, -108.083
44.898, 59.678, -108.324
45.552, 59.719, -106.821
46.214, 60.063, -106.936
46.886, 60.236, -109.235
47.568, 60.162, -111.130
48.260, 60.110, -112.471
48.962, 59.957, -113.944
49.674, 59.735, -113.209
50.397, 60.021, -111.310
51.130, 60.499, -112.962
51.874, 60.426, -115.528
52.628, 60.217, -114.448
53.394, 60.446, -112.832
54.170, 60.653, -113.046
54.958, 60.746, -112.968
55.758, 60.900, -113.301
56.569, 60.963, -114.296
57.391, 61.013, -115.346
58.226, 61.028, -117.125
59.073, 60.898, -118.676
59.932, 60.760, -118.865
60.804, 60.866, -117.711
61.688, 61.300, -117.786
62.586, 61.537, -119.642
63.496, 61.579, -120.050
64.420, 61.740, -119.986
65.357, 61.837, -120.028
66.307, 62.009, -119.596
67.272, 62.275, -120.339
68.250, 62.335, -122.351
69.243, 62.187, -122.647
70.250, 62.458, -122.566
71.272, 62.471, -125.425
72.309, 62.242, -124.649
73.360, 62.560, -124.708
74.427, 62.500, -126.402
75.510, 62.443, -126.331
76.608, 62.392, -126.086
77.723, 62.601, -125.272
78.853, 62.824, -126.588
80.000, 62.853, -127.648
81.164, 62.936, -128.000
82.344, 62.983, -129.417
83.542, 62.874, -128.923
84.757, 63.108, -129.565
85.990, 63.086, -130.390
87.241, 63.212, -131.670
88.510, 63.182, -132.107
89.797, 63.314, -132.648
91.103, 63.463, -132.524
92.428, 63.593, -133.986
93.773, 63.455, -134.078
95.137, 63.567, -134.188
96.520, 63.482, -135.107
97.924, 63.570, -135.215
99.349, 63.674, -136.149
100.794, 63.587, -136.820
102.260, 63.743, -135.886
103.747, 63.729, -136.186
105.256, 63.881, -137.087
106.787, 63.761, -137.355
108.340, 63.829, -137.750
109.916, 63.992, -138.402
111.515, 63.961, -139.178
113.137, 63.886, -137.459
114.783, 64.202, -138.949
116.452, 64.212, -139.599
118.146, 63.974, -140.918
119.865, 64.088, -139.558
121.608, 64.181, -139.239
123.377, 64.277, -140.055
125.171, 64.368, -139.515
126.992, 64.514, -140.391
128.839, 64.616, -140.832
130.713, 64.657, -140.717
132.615, 64.781, -141.475
134.543, 64.828, -142.105
136.500, 65.063, -142.810
138.486, 65.076, -144.266
140.500, 65.149, -144.481
142.544, 65.352, -144.917
144.617, 65.398, -145.993
146.721, 65.487, -146.239
148.855, 65.483, -147.428
151.020, 65.506, -148.340
153.217, 65.573, -149.974
155.445, 65.523, -150.801
157.706, 65.589, -151.382
160.000, 65.485, -152.222
162.327, 65.541, -153.512
164.688, 65.523, -154.057
167.084, 65.552, -154.995
169.514, 65.442, -155.587
171.980, 65.406, -156.162
174.481, 65.444, -156.483
177.019, 65.453, -157.160
179.594, 65.360, -157.426
182.206, 65.497, -157.751
184.856, 65.202, -157.931
187.545, 65.210, -158.660
190.273, 65.146, -159.198
193.041, 65.089, -159.111
195.849, 65.085, -159.042
198.697, 64.935, -159.027
201.587, 64.987, -159.343
204.520, 65.057, -159.635
207.494, 65.004, -160.222
210.512, 64.977, -159.637
213.574, 65.041, -160.170
216.681, 65.051, -160.752
219.833, 65.023, -160.504
223.030, 65.062, -160.955
226.274, 65.091, -161.697
229.565, 65.089, -162.416
232.905, 65.069, -163.263
236.292, 65.107, -164.229
239.729, 64.957, -164.483
243.216, 64.810, -164.529
246.754, 64.714, -165.077
250.343, 64.570, -165.477
253.984, 64.458, -164.951
257.678, 64.440, -164.964
261.426, 64.323, -164.519
265.229, 64.295, -164.239
269.087, 64.216, -164.109
273.001, 64.139, -163.697
276.972, 64.090, -163.759
281.000, 64.131, -162.799
285.088, 64.066, -162.726
289.234, 64.108, -161.795
293.441, 64.119, -161.413
297.710, 64.086, -160.829
302.040, 64.149, -160.508
306.433, 64.181, -160.774
310.890, 64.153, -160.196
315.412, 64.265, -159.996
320.000, 64.238, -159.586
324.655, 64.317, -160.264
329.377, 64.372, -158.295
334.168, 64.191, -159.330
339.028, 64.388, -159.559
343.959, 64.322, -159.357
348.962, 64.407, -159.166
354.038, 64.441, -158.786
359.188, 64.452, -158.779
364.412, 64.457, -158.663
369.713, 64.570, -158.295
375.090, 64.539, -158.278
380.546, 64.553, -158.594
386.081, 64.623, -158.180
391.697, 64.601, -158.507
397.395, 64.648, -158.378
403.175, 64.686, -158.549
409.039, 64.687, -158.231
414.989, 64.713, -158.092
421.025, 64.712, -157.934
427.149, 64.734, -157.890
433.362, 64.755, -157.642
439.665, 64.763, -157.752
446.060, 64.772, -157.629
452.548, 64.792, -157.174
459.131, 64.841, -157.378
465.809, 64.844, -157.135
472.584, 64.889, -156.918
479.458, 64.915, -156.733
486.432, 64.963, -156.582
493.507, 64.911, -156.556
500.686, 64.991, -156.168
507.968, 65.074, -155.936
515.357, 65.079, -155.994
522.853, 65.133, -155.844
530.458, 65.150, -155.630
538.174, 65.206, -155.489
546.002, 65.236, -155.283
553.943, 65.301, -155.221
562.001, 65.322, -155.237
570.175, 65.406, -155.508
578.469, 65.414, -155.223
586.883, 65.491, -154.937
595.419, 65.503, -154.644
604.080, 65.593, -154.680
612.866, 65.593, -154.443
621.780, 65.714, -154.386
630.824, 65.716, -153.993
640.000, 65.734, -154.069
649.309, 65.845, -154.135
658.753, 65.890, -153.942
668.335, 66.041, -154.539
678.056, 65.836, -155.876
687.919, 65.968, -153.851
697.925, 66.024, -153.303
708.076, 66.096, -153.662
718.376, 66.143, -153.344
728.825, 66.211, -153.542
739.426, 66.274, -153.356
750.181, 66.324, -153.650
761.093, 66.386, -153.501
772.163, 66.470, -153.566
783.394, 66.540, -153.605
794.789, 66.608, -153.783
806.349, 66.715, -153.802
818.078, 66.778, -154.086
829.977, 66.814, -154.073
842.050, 66.843, -154.491
854.297, 66.899, -154.628
866.724, 66.887, -154.568
879.330, 67.001, -154.861
892.120, 67.008, -155.015
905.097, 67.076, -155.174
918.262, 67.181, -155.378
931.618, 67.201, -155.674
945.169, 67.218, -155.853
958.917, 67.330, -156.141
972.864, 67.287, -156.399
987.015, 67.314, -156.788
1001.371, 67.282, -156.356
1015.937, 67.426, -157.639
1030.714, 67.398, -158.223
1045.706, 67.333, -158.379
1060.916, 67.449, -158.382
1076.347, 67.402, -159.105
1092.003, 67.320, -159.672
1107.887, 67.266, -159.882
1124.001, 67.132, -159.167
1140.350, 67.159, -159.513
1156.937, 67.106, -158.664
1173.765, 67.235, -158.890
1190.838, 67.211, -158.806
1208.159, 67.232, -159.029
1225.732, 67.232, -159.288
1243.561, 67.144, -159.604
1261.649, 67.097, -159.537
1280.000, 67.006, -158.851
1298.618, 66.911, -158.867
1317.507, 67.079, -158.730
1336.670, 66.840, -158.500
1356.113, 66.805, -157.482
1375.838, 66.790, -156.019
1395.850, 67.060, -155.802
1416.153, 67.133, -154.087
1436.751, 67.350, -155.286
1457.649, 67.336, -155.119
1478.851, 67.617, -155.788
1500.362, 67.660, -157.256
1522.185, 67.528, -158.619
1544.326, 67.462, -159.388
1566.789, 67.137, -159.394
1589.578, 67.128, -156.815
1612.699, 67.195, -157.778
1636.156, 66.992, -157.894
1659.955, 67.039, -156.618
1684.099, 66.758, -156.811
1708.595, 66.990, -155.753
1733.447, 66.935, -155.969
1758.661, 66.803, -156.698
1784.241, 66.703, -156.073
1810.193, 66.471, -155.706
1836.523, 66.414, -155.567
1863.236, 65.974, -154.116
1890.338, 65.579, -152.885
1917.833, 65.895, -148.700
1945.729, 66.183, -147.092
1974.030, 65.892, -142.591
2002.743, 66.282, -141.524
2031.873, 66.250, -141.536
2061.428, 66.420, -140.246
2091.412, 66.636, -137.894
2121.832, 66.724, -137.340
2152.695, 66.979, -133.710
2184.007, 67.046, -130.989
2215.774, 67.628, -129.328
2248.003, 68.437, -128.680
2280.701, 68.872, -128.275
2313.874, 69.077, -128.527
2347.530, 69.448, -131.788
2381.676, 69.596, -133.546
2416.318, 69.446, -134.501
2451.464, 69.354, -132.486
2487.122, 69.720, -130.272
2523.298, 70.432, -128.271
2560.000, 70.652, -130.859
2597.236, 70.770, -131.431
2635.014, 70.953, -132.526
2673.341, 71.057, -132.449
2712.226, 71.243, -130.788
2751.676, 71.835, -128.030
2791.700, 72.654, -129.430
2832.306, 73.096, -132.813
2873.503, 73.523, -135.634
2915.299, 73.802, -139.259
2957.703, 73.892, -142.758
3000.724, 73.721, -146.563
3044.370, 73.575, -148.130
3088.652, 73.447, -150.272
3133.577, 73.263, -152.354
3179.156, 73.019, -153.386
3225.398, 72.692, -153.674
3272.312, 72.540, -153.830
3319.909, 72.188, -153.259
3368.198, 71.914, -150.747
3417.190, 72.116, -146.800
3466.894, 72.777, -144.440
3517.321, 73.210, -146.598
3568.482, 73.382, -149.728
3620.387, 73.273, -151.487
3673.046, 73.103, -149.316
3726.472, 73.235, -147.326
3780.675, 73.694, -146.932
3835.666, 74.355, -148.055
3891.457, 74.525, -151.216
3948.060, 74.583, -152.660
4005.486, 74.394, -154.174
4063.747, 74.711, -154.052
4122.855, 74.890, -154.964
4182.824, 74.996, -157.420
4243.664, 74.968, -157.101
4305.390, 75.107, -158.845
4368.013, 75.166, -160.318
4431.547, 75.108, -162.097
4496.005, 74.821, -161.288
4561.401, 75.160, -157.671
4627.749, 76.113, -157.791
4695.061, 76.773, -161.425
4763.352, 77.291, -166.907
4832.637, 77.374, -173.575
4902.929, 77.061, -179.968
4974.244, 76.280, 175.935
5046.596, 75.482, 174.679
5120.000, 74.786, 177.579
5194.472, 74.861, -177.802
5270.027, 75.316, -176.354
5346.682, 75.943, -176.522
5424.451, 76.595, 179.834
5503.352, 76.766, 174.746
5583.399, 76.639, 170.464
5664.612, 76.301, 167.482
5747.006, 76.058, 166.355
5830.598, 76.152, 165.572
5915.406, 76.405, 163.566
6001.447, 76.597, 159.910
6088.740, 76.660, 154.659
6177.303, 76.505, 149.767
6267.154, 76.351, 143.948
6358.312, 75.960, 137.452
6450.796, 75.163, 131.090
6544.625, 73.920, 125.884
6639.818, 72.577, 126.215
6736.397, 72.001, 127.780
6834.380, 71.455, 125.733
6933.789, 70.461, 123.580
7034.643, 69.236, 124.695
7136.964, 68.223, 129.173
7240.773, 67.866, 135.603
7346.093, 68.077, 137.853
7452.944, 67.919, 137.078
7561.350, 67.576, 136.800
7671.332, 67.186, 136.777
7782.915, 66.795, 136.708
7896.120, 66.520, 135.351
8010.971, 65.872, 129.940
8127.493, 63.677, 123.778
8245.711, 59.935, 134.924
8365.647, 59.188, 164.024
8487.328, 61.144, -177.551
8610.779, 63.226, -172.891
8736.026, 65.159, -172.784
8863.095, 66.047, -177.907
8992.011, 66.674, 177.943
9122.803, 66.902, 172.184
9255.497, 66.625, 167.869
9390.121, 66.211, 165.262
9526.704, 65.612, 163.639
9665.273, 65.055, 164.788
9805.857, 64.745, 167.114
9948.487, 64.742, 170.081
10093.191, 65.031, 170.407
10240.000, 65.125, 168.698
10388.944, 64.792, 167.647
10540.055, 64.494, 165.688
10693.363, 64.044, 165.444
10848.902, 63.506, 167.146
11006.703, 62.918, 170.043
11166.799, 62.666, 174.515
11329.224, 62.749, -179.389
11494.012, 63.576, -173.434
11661.195, 64.855, -173.767
11830.812, 65.860, -179.202
12002.895, 66.097, 173.188
12177.480, 65.861, 166.260
12354.606, 65.419, 162.164
12534.309, 64.858, 158.293
12716.624, 64.581, 157.167
12901.592, 64.609, 152.270
13089.250, 64.056, 144.568
13279.637, 62.933, 138.132
13472.794, 61.925, 134.549
13668.760, 60.934, 130.454
13867.577, 59.654, 123.914
14069.285, 57.979, 118.333
14273.928, 55.631, 111.189
14481.547, 52.019, 107.527
14692.186, 47.514, 109.085
14905.889, 41.432, 135.588
15122.700, 40.016, -167.363
15342.664, 41.842, -157.785
15565.829, 35.706, -89.926
15792.239, 49.624, -53.502
16021.942, 55.904, -72.849
16254.986, 58.843, -91.965
16491.422, 60.568, -112.014
16731.295, 59.835, -132.433
16974.656, 58.944, -130.201
17221.559, 60.733, -139.290
17472.053, 60.063, -160.250
17726.189, 57.232, -170.909
17984.021, 54.859, -168.767
18245.605, 52.548, -162.820
18510.994, 51.381, -141.572
18780.242, 53.449, -130.352
19053.408, 55.096, -134.720
19330.547, 55.035, -143.917
19611.715, 54.012, -145.468
19896.975, 53.975, -144.480
