* Measurement data measured by REW V5.19
* Source: ASIO MOTU M Series, In 1
* Format: 1M Log Swept Sine, 2 sweeps at -10.0 dBFS  With no timing reference
* Dated: 16 Sep, 2020 6:11:05 PM
* REW Settings:
*  C-weighting compensation: Off
*  Target level: 75.0 dB
* Note: ; 
* Measurement: Sep 16 18:11:05
* Smoothing: None
* Frequency Step: 1/48 octave
* Start Frequency: 10.0 Hz
*
* Freq(Hz), SPL(dB), Phase(degrees)
10.145, 51.192, -48.993
10.293, 51.376, -49.607
10.443, 51.580, -50.246
10.595, 51.788, -50.965
10.749, 51.995, -51.799
10.905, 52.199, -52.732
11.064, 52.389, -53.730
11.225, 52.564, -54.809
11.388, 52.721, -55.878
11.554, 52.855, -56.934
11.722, 52.974, -57.914
11.892, 53.078, -58.765
12.065, 53.175, -59.490
12.241, 53.278, -60.046
12.419, 53.389, -60.473
12.599, 53.526, -60.821
12.782, 53.685, -61.132
12.968, 53.873, -61.539
13.157, 54.081, -62.062
13.348, 54.298, -62.817
13.543, 54.515, -63.780
13.740, 54.712, -64.975
13.939, 54.883, -66.314
14.142, 55.014, -67.755
14.348, 55.109, -69.148
14.557, 55.164, -70.440
14.768, 55.200, -71.492
14.983, 55.224, -72.289
15.201, 55.266, -72.808
15.422, 55.335, -73.149
15.646, 55.447, -73.385
15.874, 55.597, -73.722
16.105, 55.777, -74.212
16.339, 55.962, -74.958
16.577, 56.133, -75.869
16.818, 56.277, -76.893
17.063, 56.386, -77.835
17.311, 56.478, -78.581
17.563, 56.565, -79.058
17.818, 56.683, -79.273
18.077, 56.843, -79.412
18.340, 57.048, -79.622
18.607, 57.281, -80.107
18.877, 57.503, -80.913
19.152, 57.687, -81.925
19.431, 57.818, -82.983
19.713, 57.896, -83.835
20.000, 57.957, -84.327
20.291, 58.036, -84.530
20.586, 58.152, -84.633
20.885, 58.302, -84.908
21.189, 58.444, -85.556
21.497, 58.520, -86.443
21.810, 58.508, -87.179
22.127, 58.434, -87.318
22.449, 58.378, -86.597
22.776, 58.446, -85.209
23.107, 58.703, -83.908
23.443, 59.107, -83.621
23.784, 59.524, -84.745
24.130, 59.832, -86.980
24.481, 59.972, -89.651
24.837, 59.963, -92.050
25.198, 59.879, -93.711
25.565, 59.820, -94.628
25.937, 59.850, -95.225
26.314, 59.958, -96.009
26.697, 60.087, -97.186
27.085, 60.186, -98.585
27.479, 60.244, -99.883
27.879, 60.289, -100.848
28.284, 60.358, -101.449
28.696, 60.480, -101.835
29.113, 60.663, -102.256
29.537, 60.884, -102.974
29.966, 61.094, -104.112
30.402, 61.237, -105.502
30.844, 61.293, -106.716
31.293, 61.311, -107.349
31.748, 61.380, -107.468
32.210, 61.540, -107.699
32.678, 61.723, -108.586
33.154, 61.825, -109.987
33.636, 61.817, -111.201
34.125, 61.785, -111.727
34.621, 61.833, -111.811
35.125, 61.975, -112.187
35.636, 62.123, -113.178
36.154, 62.204, -114.434
36.680, 62.234, -115.413
37.214, 62.283, -115.969
37.755, 62.400, -116.480
38.304, 62.553, -117.410
38.861, 62.655, -118.770
39.427, 62.663, -120.032
40.000, 62.645, -120.688
40.582, 62.700, -121.011
41.172, 62.811, -121.795
41.771, 62.861, -123.063
42.379, 62.819, -124.016
42.995, 62.810, -124.308
43.620, 62.900, -124.606
44.255, 63.006, -125.320
44.898, 63.097, -125.913
45.552, 63.266, -126.408
46.214, 63.486, -127.726
46.886, 63.554, -129.794
47.568, 63.428, -130.986
48.260, 63.366, -130.688
48.962, 63.492, -130.562
49.674, 63.590, -131.380
50.397, 63.585, -132.026
51.130, 63.623, -132.309
51.874, 63.695, -133.045
52.628, 63.710, -133.968
53.394, 63.721, -134.588
54.170, 63.779, -135.125
54.958, 63.880, -135.741
55.758, 64.013, -136.633
56.569, 64.121, -137.780
57.391, 64.205, -138.924
58.226, 64.261, -140.230
59.073, 64.251, -141.481
59.932, 64.231, -142.493
60.804, 64.208, -143.685
61.688, 64.135, -144.894
62.586, 64.059, -145.900
63.496, 63.996, -147.017
64.420, 63.870, -148.279
65.357, 63.666, -148.801
66.307, 63.547, -148.633
67.272, 63.438, -148.678
68.250, 63.312, -148.140
69.243, 63.246, -147.772
70.250, 63.091, -146.835
71.272, 63.206, -145.226
72.309, 63.384, -145.630
73.360, 63.398, -145.842
74.427, 63.502, -145.834
75.510, 63.589, -146.062
76.608, 63.690, -146.135
77.723, 63.812, -146.243
78.853, 63.924, -146.775
80.000, 63.959, -147.092
81.164, 64.055, -147.361
82.344, 64.121, -147.937
83.542, 64.202, -148.468
84.757, 64.260, -149.186
85.990, 64.321, -149.634
87.241, 64.384, -150.371
88.510, 64.404, -150.801
89.797, 64.443, -151.460
91.103, 64.447, -151.834
92.428, 64.494, -152.372
93.773, 64.584, -152.981
95.137, 64.572, -154.183
96.520, 64.597, -154.213
97.924, 64.649, -154.870
99.349, 64.761, -155.270
100.794, 64.734, -156.506
102.260, 64.749, -156.718
103.747, 64.742, -157.443
105.256, 64.746, -158.131
106.787, 64.711, -158.723
108.340, 64.696, -159.408
109.916, 64.641, -159.957
111.515, 64.625, -160.330
113.137, 64.606, -160.405
114.783, 64.613, -160.664
116.452, 64.615, -160.625
118.146, 64.658, -161.174
119.865, 64.657, -161.283
121.608, 64.703, -161.980
123.377, 64.710, -162.579
125.171, 64.739, -162.709
126.992, 64.729, -163.414
128.839, 64.742, -163.787
130.713, 64.737, -164.354
132.615, 64.722, -164.752
134.543, 64.706, -165.311
136.500, 64.706, -165.770
138.486, 64.713, -166.537
140.500, 64.661, -167.102
142.544, 64.638, -167.245
144.617, 64.593, -167.831
146.721, 64.558, -168.304
148.855, 64.519, -168.613
151.020, 64.443, -169.104
153.217, 64.385, -169.291
155.445, 64.316, -169.315
157.706, 64.249, -169.437
160.000, 64.225, -169.072
162.327, 64.211, -169.107
164.688, 64.184, -168.799
167.084, 64.232, -168.869
169.514, 64.258, -168.868
171.980, 64.293, -168.996
174.481, 64.314, -169.087
177.019, 64.328, -169.094
179.594, 64.362, -169.437
182.206, 64.382, -169.730
184.856, 64.412, -169.969
187.545, 64.427, -170.396
190.273, 64.460, -170.716
193.041, 64.485, -171.164
195.849, 64.509, -171.680
198.697, 64.473, -172.124
201.587, 64.521, -172.878
204.520, 64.515, -173.459
207.494, 64.478, -174.127
210.512, 64.494, -174.650
213.574, 64.390, -175.028
216.681, 64.336, -176.015
219.833, 64.255, -176.633
223.030, 64.177, -176.936
226.274, 64.054, -177.588
229.565, 63.978, -177.867
232.905, 63.864, -177.878
236.292, 63.742, -178.060
239.729, 63.660, -178.232
243.216, 63.564, -177.994
246.754, 63.467, -177.714
250.343, 63.407, -177.560
253.984, 63.377, -177.348
257.678, 63.369, -177.566
261.426, 63.317, -177.742
265.229, 63.251, -178.488
269.087, 63.098, -178.874
273.001, 62.842, -178.710
276.972, 62.678, -177.470
281.000, 62.679, -176.497
285.088, 62.670, -176.329
289.234, 62.645, -176.447
293.441, 62.540, -176.628
297.710, 62.407, -176.599
302.040, 62.154, -175.805
306.433, 61.998, -173.773
310.890, 62.060, -172.141
315.412, 62.195, -171.473
320.000, 62.236, -171.089
324.655, 62.271, -171.155
329.377, 62.208, -170.894
334.168, 62.117, -170.644
339.028, 62.023, -169.663
343.959, 62.013, -168.503
348.962, 62.067, -167.434
354.038, 62.145, -166.694
359.188, 62.209, -166.215
364.412, 62.240, -165.682
369.713, 62.277, -165.146
375.090, 62.328, -164.593
380.546, 62.358, -164.073
386.081, 62.416, -163.547
391.697, 62.468, -163.059
397.395, 62.546, -162.537
403.175, 62.608, -162.259
409.039, 62.677, -161.891
414.989, 62.748, -161.578
421.025, 62.800, -161.299
427.149, 62.848, -161.091
433.362, 62.908, -160.757
439.665, 62.953, -160.473
446.060, 63.007, -160.162
452.548, 63.073, -159.761
459.131, 63.133, -159.523
465.809, 63.208, -159.221
472.584, 63.285, -158.992
479.458, 63.360, -158.792
486.432, 63.423, -158.668
493.507, 63.496, -158.488
500.686, 63.560, -158.326
507.968, 63.631, -158.217
515.357, 63.693, -158.129
522.853, 63.760, -157.933
530.458, 63.828, -157.805
538.174, 63.893, -157.681
546.002, 63.963, -157.613
553.943, 64.032, -157.499
562.001, 64.103, -157.437
570.175, 64.172, -157.311
578.469, 64.251, -157.277
586.883, 64.337, -157.238
595.419, 64.425, -157.266
604.080, 64.511, -157.406
612.866, 64.587, -157.645
621.780, 64.649, -157.872
630.824, 64.691, -158.153
640.000, 64.721, -158.287
649.309, 64.748, -158.315
658.753, 64.797, -158.226
668.335, 64.867, -158.213
678.056, 64.950, -158.333
687.919, 65.017, -158.547
697.925, 65.077, -158.800
708.076, 65.133, -158.942
718.376, 65.201, -159.208
728.825, 65.287, -159.545
739.426, 65.361, -160.126
750.181, 65.400, -160.975
761.093, 65.393, -161.919
772.163, 65.322, -162.834
783.394, 65.179, -163.600
794.789, 64.947, -163.909
806.349, 64.661, -163.215
818.078, 64.449, -161.063
829.977, 64.498, -158.259
842.050, 64.748, -156.170
854.297, 65.076, -155.085
866.724, 65.411, -154.871
879.330, 65.721, -155.307
892.120, 65.966, -156.303
905.097, 66.145, -157.430
918.262, 66.271, -158.617
931.618, 66.361, -159.841
945.169, 66.408, -161.036
958.917, 66.434, -162.144
972.864, 66.427, -163.229
987.015, 66.396, -164.191
1001.371, 66.352, -165.020
1015.937, 66.302, -165.772
1030.714, 66.242, -166.461
1045.706, 66.183, -167.071
1060.916, 66.108, -167.636
1076.347, 66.032, -168.108
1092.003, 65.942, -168.493
1107.887, 65.856, -168.842
1124.001, 65.767, -169.068
1140.350, 65.674, -169.294
1156.937, 65.584, -169.409
1173.765, 65.505, -169.581
1190.838, 65.410, -169.658
1208.159, 65.315, -169.835
1225.732, 65.213, -169.913
1243.561, 65.082, -170.065
1261.649, 64.895, -170.088
1280.000, 64.700, -169.421
1298.618, 64.546, -168.510
1317.507, 64.420, -167.461
1336.670, 64.340, -165.958
1356.113, 64.400, -164.471
1375.838, 64.504, -163.936
1395.850, 64.532, -163.694
1416.153, 64.533, -163.481
1436.751, 64.506, -163.143
1457.649, 64.481, -162.717
1478.851, 64.453, -162.242
1500.362, 64.427, -161.762
1522.185, 64.395, -161.242
1544.326, 64.360, -160.728
1566.789, 64.325, -160.048
1589.578, 64.302, -159.318
1612.699, 64.287, -158.561
1636.156, 64.275, -157.845
1659.955, 64.260, -157.099
1684.099, 64.248, -156.220
1708.595, 64.255, -155.267
1733.447, 64.266, -154.405
1758.661, 64.277, -153.480
1784.241, 64.301, -152.475
1810.193, 64.312, -151.489
1836.523, 64.345, -150.254
1863.236, 64.423, -149.034
1890.338, 64.513, -147.944
1917.833, 64.611, -146.846
1945.729, 64.716, -145.787
1974.030, 64.838, -144.775
2002.743, 64.975, -143.794
2031.873, 65.116, -142.856
2061.428, 65.268, -141.997
2091.412, 65.435, -141.184
2121.832, 65.605, -140.456
2152.695, 65.777, -139.798
2184.007, 65.958, -139.205
2215.774, 66.138, -138.651
2248.003, 66.321, -138.167
2280.701, 66.507, -137.733
2313.874, 66.692, -137.353
2347.530, 66.886, -136.990
2381.676, 67.078, -136.707
2416.318, 67.266, -136.437
2451.464, 67.448, -136.173
2487.122, 67.631, -135.784
2523.298, 67.845, -135.159
2560.000, 68.157, -134.645
2597.236, 68.504, -134.893
2635.014, 68.786, -135.519
2673.341, 69.058, -136.256
2712.226, 69.275, -137.323
2751.676, 69.432, -138.212
2791.700, 69.593, -138.858
2832.306, 69.761, -139.678
2873.503, 69.867, -140.490
2915.299, 69.956, -140.697
2957.703, 70.147, -140.558
3000.724, 70.440, -140.940
3044.370, 70.712, -142.109
3088.652, 70.892, -143.639
3133.577, 70.965, -144.753
3179.156, 71.093, -144.808
3225.398, 71.454, -145.297
3272.312, 71.800, -147.325
3319.909, 72.015, -149.920
3368.198, 72.125, -152.577
3417.190, 72.163, -155.185
3466.894, 72.134, -157.742
3517.321, 72.047, -160.174
3568.482, 71.884, -162.519
3620.387, 71.632, -164.578
3673.046, 71.284, -165.992
3726.472, 70.892, -166.466
3780.675, 70.491, -165.971
3835.666, 70.105, -164.135
3891.457, 69.889, -160.422
3948.060, 70.124, -155.660
4005.486, 70.853, -152.714
4063.747, 71.690, -153.078
4122.855, 72.382, -155.692
4182.824, 72.852, -159.817
4243.664, 73.003, -164.529
4305.390, 72.901, -168.438
4368.013, 72.699, -171.336
4431.547, 72.454, -173.249
4496.005, 72.247, -174.290
4561.401, 72.138, -174.716
4627.749, 72.161, -175.178
4695.061, 72.267, -176.254
4763.352, 72.385, -177.816
4832.637, 72.530, 179.684
4902.929, 72.523, 176.158
4974.244, 72.301, 172.815
5046.596, 71.980, 170.478
5120.000, 71.704, 168.841
5194.472, 71.460, 167.208
5270.027, 71.200, 165.610
5346.682, 70.926, 164.209
5424.451, 70.669, 163.007
5503.352, 70.442, 161.822
5583.399, 70.239, 160.454
5664.612, 70.049, 158.693
5747.006, 69.814, 156.235
5830.598, 69.446, 153.192
5915.406, 68.853, 150.039
6001.447, 67.996, 147.651
6088.740, 66.885, 147.661
6177.303, 65.951, 151.243
6267.154, 65.488, 155.878
6358.312, 65.363, 159.507
6450.796, 65.337, 161.470
6544.625, 65.231, 162.542
6639.818, 65.082, 163.633
6736.397, 64.964, 164.630
6834.380, 64.837, 165.135
6933.789, 64.629, 165.508
7034.643, 64.375, 166.237
7136.964, 64.124, 167.356
7240.773, 63.913, 168.919
7346.093, 63.812, 170.569
7452.944, 63.778, 171.606
7561.350, 63.714, 172.102
7671.332, 63.575, 172.325
7782.915, 63.325, 173.360
7896.120, 63.272, 175.643
8010.971, 63.520, 176.583
8127.493, 63.704, 175.384
8245.711, 63.750, 173.008
8365.647, 63.436, 169.447
8487.328, 62.759, 167.825
8610.779, 62.113, 168.443
8736.026, 61.823, 168.708
8863.095, 61.064, 169.266
8992.011, 60.485, 171.360
9122.803, 59.956, 173.593
9255.497, 59.401, 176.912
9390.121, 59.049, -178.710
9526.704, 58.870, -174.612
9665.273, 58.748, -170.539
9805.857, 58.825, -166.208
9948.487, 59.078, -163.258
10093.191, 59.210, -161.764
10240.000, 59.104, -159.642
10388.944, 59.082, -154.424
10540.055, 59.862, -148.947
10693.363, 61.002, -148.539
10848.902, 61.866, -152.342
11006.703, 62.213, -158.123
11166.799, 62.067, -163.708
11329.224, 61.501, -167.527
11494.012, 60.741, -168.512
11661.195, 60.131, -165.379
11830.812, 60.229, -160.495
12002.895, 60.942, -158.416
12177.480, 61.739, -160.309
12354.606, 62.341, -164.862
12534.309, 62.734, -171.030
12716.624, 62.879, -178.858
12901.592, 62.583, 172.510
13089.250, 61.969, 165.175
13279.637, 61.268, 159.192
13472.794, 60.736, 154.093
13668.760, 60.375, 146.568
13867.577, 59.806, 136.395
14069.285, 58.847, 122.966
14273.928, 56.884, 107.664
14481.547, 53.889, 95.703
14692.186, 50.370, 90.031
14905.889, 46.960, 90.843
15122.700, 44.367, 95.655
15342.664, 42.490, 97.526
15565.829, 40.791, 97.040
15792.239, 40.125, 90.789
16021.942, 39.517, 71.920
16254.986, 38.590, 51.766
16491.422, 38.592, 37.751
16731.295, 40.799, 30.281
16974.656, 44.354, 15.604
17221.559, 47.286, -8.029
17472.053, 48.056, -37.306
17726.189, 46.594, -56.548
17984.021, 45.322, -63.079
18245.605, 44.522, -69.655
18510.994, 42.988, -74.496
18780.242, 41.479, -70.441
19053.408, 41.449, -64.920
19330.547, 42.132, -68.493
19611.715, 41.388, -83.812
19896.975, 37.617, -100.136
