* Measurement data measured by REW V5.19
* Source: ASIO MOTU M Series, In 1
* Format: 1M Log Swept Sine, 2 sweeps at -10.0 dBFS  With no timing reference
* Dated: 16 Sep, 2020 6:14:00 PM
* REW Settings:
*  C-weighting compensation: Off
*  Target level: 75.0 dB
* Note: ; 
* Measurement: Sep 16 18:14:00
* Smoothing: None
* Frequency Step: 1/48 octave
* Start Frequency: 10.0 Hz
*
* Freq(Hz), SPL(dB), Phase(degrees)
10.145, 50.316, -32.595
10.293, 50.481, -33.740
10.443, 50.627, -34.743
10.595, 50.768, -35.700
10.749, 50.908, -36.605
10.905, 51.045, -37.463
11.064, 51.185, -38.299
11.225, 51.327, -39.106
11.388, 51.469, -39.902
11.554, 51.614, -40.693
11.722, 51.759, -41.469
11.892, 51.905, -42.229
12.065, 52.053, -42.968
12.241, 52.206, -43.670
12.419, 52.365, -44.349
12.599, 52.537, -45.011
12.782, 52.722, -45.678
12.968, 52.922, -46.403
13.157, 53.134, -47.202
13.348, 53.353, -48.140
13.543, 53.572, -49.205
13.740, 53.779, -50.420
13.939, 53.967, -51.715
14.142, 54.127, -53.061
14.348, 54.259, -54.318
14.557, 54.361, -55.436
14.768, 54.455, -56.280
14.983, 54.548, -56.840
15.201, 54.672, -57.105
15.422, 54.837, -57.212
15.646, 55.061, -57.262
15.874, 55.328, -57.514
16.105, 55.627, -58.028
16.339, 55.924, -58.919
16.577, 56.191, -60.062
16.818, 56.412, -61.386
17.063, 56.577, -62.644
17.311, 56.702, -63.688
17.563, 56.803, -64.416
17.818, 56.918, -64.801
18.077, 57.065, -65.026
18.340, 57.249, -65.235
18.607, 57.460, -65.636
18.877, 57.660, -66.274
19.152, 57.831, -67.035
19.431, 57.964, -67.775
19.713, 58.074, -68.294
20.000, 58.201, -68.581
20.291, 58.370, -68.848
20.586, 58.579, -69.366
20.885, 58.794, -70.393
21.189, 58.946, -71.953
21.497, 58.978, -73.659
21.810, 58.888, -74.909
22.127, 58.742, -75.134
22.449, 58.669, -74.147
22.776, 58.808, -72.471
23.107, 59.206, -71.315
23.443, 59.743, -71.760
23.784, 60.230, -73.925
24.130, 60.532, -77.119
24.481, 60.614, -80.366
24.837, 60.532, -82.763
25.198, 60.419, -83.851
25.565, 60.418, -83.921
25.937, 60.584, -83.947
26.314, 60.846, -84.502
26.697, 61.091, -85.761
27.085, 61.259, -87.185
27.479, 61.376, -88.273
27.879, 61.511, -88.940
28.284, 61.703, -89.526
28.696, 61.924, -90.409
29.113, 62.114, -91.612
29.537, 62.242, -92.835
29.966, 62.330, -93.784
30.402, 62.421, -94.442
30.844, 62.539, -95.011
31.293, 62.671, -95.679
31.748, 62.799, -96.470
32.210, 62.918, -97.330
32.678, 63.030, -98.250
33.154, 63.134, -99.239
33.636, 63.225, -100.249
34.125, 63.315, -101.199
34.621, 63.422, -102.106
35.125, 63.556, -103.122
35.636, 63.696, -104.367
36.154, 63.814, -105.765
36.680, 63.904, -107.090
37.214, 63.993, -108.223
37.755, 64.104, -109.296
38.304, 64.219, -110.480
38.861, 64.302, -111.670
39.427, 64.362, -112.595
40.000, 64.447, -113.264
40.582, 64.573, -114.032
41.172, 64.691, -115.142
41.771, 64.757, -116.477
42.379, 64.754, -117.821
42.995, 64.682, -118.818
43.620, 64.625, -119.139
44.255, 64.707, -119.432
44.898, 64.810, -120.985
45.552, 64.669, -122.887
46.214, 64.420, -122.597
46.886, 64.605, -120.872
47.568, 65.117, -122.051
48.260, 65.296, -125.600
48.962, 65.145, -127.670
49.674, 65.145, -128.036
50.397, 65.277, -129.180
51.130, 65.274, -130.477
51.874, 65.283, -130.896
52.628, 65.353, -131.574
53.394, 65.334, -132.185
54.170, 65.361, -132.040
54.958, 65.498, -132.315
55.758, 65.599, -133.134
56.569, 65.688, -133.962
57.391, 65.787, -135.087
58.226, 65.860, -136.416
59.073, 65.921, -137.838
59.932, 65.959, -139.350
60.804, 65.986, -140.833
61.688, 66.006, -142.486
62.586, 65.960, -144.310
63.496, 65.847, -145.824
64.420, 65.736, -147.160
65.357, 65.548, -148.638
66.307, 65.280, -149.286
67.272, 65.089, -149.469
68.250, 64.860, -149.669
69.243, 64.643, -149.018
70.250, 64.516, -148.251
71.272, 64.407, -147.327
72.309, 64.362, -146.148
73.360, 64.410, -144.812
74.427, 64.586, -143.974
75.510, 64.741, -143.897
76.608, 64.859, -143.855
77.723, 64.960, -143.787
78.853, 65.093, -143.522
80.000, 65.257, -143.820
81.164, 65.355, -144.162
82.344, 65.502, -144.753
83.542, 65.562, -145.581
84.757, 65.672, -146.136
85.990, 65.754, -146.972
87.241, 65.832, -147.725
88.510, 65.866, -148.033
89.797, 65.989, -148.710
91.103, 65.987, -149.238
92.428, 66.062, -150.095
93.773, 66.039, -150.550
95.137, 66.151, -151.253
96.520, 66.236, -152.430
97.924, 66.166, -153.217
99.349, 66.325, -153.287
100.794, 66.318, -154.318
102.260, 66.392, -154.605
103.747, 66.429, -155.496
105.256, 66.453, -156.373
106.787, 66.428, -157.571
108.340, 66.446, -158.039
109.916, 66.374, -159.166
111.515, 66.361, -159.436
113.137, 66.296, -159.665
114.783, 66.304, -160.049
116.452, 66.283, -160.236
118.146, 66.316, -160.267
119.865, 66.415, -160.917
121.608, 66.442, -161.339
123.377, 66.486, -161.884
125.171, 66.517, -162.349
126.992, 66.550, -163.175
128.839, 66.576, -163.720
130.713, 66.569, -164.318
132.615, 66.590, -164.957
134.543, 66.598, -165.732
136.500, 66.613, -166.389
138.486, 66.580, -166.845
140.500, 66.572, -167.832
142.544, 66.593, -168.318
144.617, 66.586, -168.889
146.721, 66.546, -169.444
148.855, 66.545, -170.008
151.020, 66.531, -170.549
153.217, 66.518, -171.230
155.445, 66.492, -171.762
157.706, 66.466, -172.328
160.000, 66.382, -172.922
162.327, 66.369, -173.301
164.688, 66.353, -174.066
167.084, 66.284, -174.187
169.514, 66.227, -174.493
171.980, 66.215, -174.837
174.481, 66.205, -175.165
177.019, 66.179, -175.484
179.594, 66.178, -175.817
182.206, 66.178, -176.216
184.856, 66.195, -176.636
187.545, 66.191, -177.185
190.273, 66.194, -177.700
193.041, 66.184, -178.317
195.849, 66.190, -178.978
198.697, 66.176, -179.869
201.587, 66.117, 179.453
204.520, 66.093, 178.723
207.494, 66.059, 177.801
210.512, 65.973, 176.969
213.574, 65.895, 176.108
216.681, 65.778, 175.358
219.833, 65.676, 174.714
223.030, 65.571, 174.065
226.274, 65.391, 173.501
229.565, 65.287, 172.750
232.905, 65.162, 172.438
236.292, 64.981, 172.000
239.729, 64.826, 171.877
243.216, 64.640, 171.963
246.754, 64.484, 172.083
250.343, 64.372, 172.284
253.984, 64.252, 172.495
257.678, 64.190, 172.413
261.426, 64.067, 172.159
265.229, 63.921, 171.669
269.087, 63.669, 171.556
273.001, 63.386, 172.529
276.972, 63.282, 174.213
281.000, 63.303, 175.114
285.088, 63.317, 175.147
289.234, 63.240, 174.873
293.441, 63.062, 174.695
297.710, 62.819, 174.823
302.040, 62.553, 176.570
306.433, 62.542, 178.862
310.890, 62.631, 179.839
315.412, 62.679, -179.873
320.000, 62.694, -179.536
324.655, 62.652, -179.258
329.377, 62.578, -178.996
334.168, 62.496, -178.462
339.028, 62.405, -177.509
343.959, 62.389, -176.440
348.962, 62.402, -175.431
354.038, 62.440, -174.749
359.188, 62.450, -174.257
364.412, 62.477, -173.783
369.713, 62.484, -173.356
375.090, 62.451, -172.877
380.546, 62.451, -172.319
386.081, 62.435, -171.640
391.697, 62.434, -170.831
397.395, 62.447, -170.133
403.175, 62.475, -169.393
409.039, 62.502, -168.562
414.989, 62.552, -167.914
421.025, 62.614, -167.358
427.149, 62.660, -166.847
433.362, 62.718, -166.288
439.665, 62.766, -165.829
446.060, 62.814, -165.298
452.548, 62.871, -164.723
459.131, 62.939, -164.272
465.809, 63.009, -163.870
472.584, 63.071, -163.443
479.458, 63.135, -163.024
486.432, 63.202, -162.704
493.507, 63.267, -162.328
500.686, 63.334, -162.019
507.968, 63.402, -161.659
515.357, 63.472, -161.387
522.853, 63.548, -161.075
530.458, 63.623, -160.785
538.174, 63.695, -160.537
546.002, 63.765, -160.282
553.943, 63.835, -160.057
562.001, 63.912, -159.877
570.175, 63.985, -159.619
578.469, 64.059, -159.419
586.883, 64.146, -159.156
595.419, 64.239, -158.998
604.080, 64.338, -158.919
612.866, 64.426, -158.855
621.780, 64.529, -158.899
630.824, 64.624, -159.053
640.000, 64.699, -159.187
649.309, 64.759, -159.314
658.753, 64.813, -159.488
668.335, 64.868, -159.623
678.056, 64.928, -159.719
687.919, 64.967, -159.793
697.925, 65.007, -159.944
708.076, 65.044, -159.861
718.376, 65.094, -159.784
728.825, 65.168, -159.693
739.426, 65.275, -159.761
750.181, 65.367, -160.090
761.093, 65.431, -160.519
772.163, 65.482, -161.131
783.394, 65.485, -161.881
794.789, 65.394, -162.535
806.349, 65.237, -162.500
818.078, 65.110, -161.498
829.977, 65.109, -159.930
842.050, 65.252, -158.531
854.297, 65.481, -157.678
866.724, 65.738, -157.377
879.330, 65.982, -157.748
892.120, 66.185, -158.522
905.097, 66.337, -159.426
918.262, 66.449, -160.405
931.618, 66.540, -161.339
945.169, 66.602, -162.342
958.917, 66.645, -163.347
972.864, 66.657, -164.381
987.015, 66.652, -165.261
1001.371, 66.619, -166.130
1015.937, 66.587, -166.869
1030.714, 66.538, -167.546
1045.706, 66.492, -168.140
1060.916, 66.442, -168.690
1076.347, 66.382, -169.186
1092.003, 66.320, -169.638
1107.887, 66.263, -170.042
1124.001, 66.197, -170.371
1140.350, 66.132, -170.762
1156.937, 66.068, -171.064
1173.765, 65.997, -171.397
1190.838, 65.914, -171.769
1208.159, 65.829, -172.130
1225.732, 65.733, -172.474
1243.561, 65.604, -172.925
1261.649, 65.409, -173.201
1280.000, 65.193, -172.791
1298.618, 65.041, -172.199
1317.507, 64.898, -171.465
1336.670, 64.777, -170.253
1356.113, 64.788, -169.135
1375.838, 64.829, -168.676
1395.850, 64.800, -168.557
1416.153, 64.755, -168.375
1436.751, 64.670, -168.006
1457.649, 64.596, -167.547
1478.851, 64.518, -166.990
1500.362, 64.449, -166.349
1522.185, 64.378, -165.636
1544.326, 64.316, -164.858
1566.789, 64.267, -163.989
1589.578, 64.227, -163.089
1612.699, 64.195, -162.129
1636.156, 64.168, -161.175
1659.955, 64.155, -160.137
1684.099, 64.159, -159.116
1708.595, 64.156, -158.094
1733.447, 64.174, -157.013
1758.661, 64.199, -155.901
1784.241, 64.248, -154.848
1810.193, 64.277, -153.844
1836.523, 64.320, -152.621
1863.236, 64.394, -151.437
1890.338, 64.466, -150.378
1917.833, 64.548, -149.120
1945.729, 64.669, -147.881
1974.030, 64.805, -146.831
2002.743, 64.946, -145.791
2031.873, 65.101, -144.868
2061.428, 65.260, -143.964
2091.412, 65.430, -143.115
2121.832, 65.605, -142.355
2152.695, 65.786, -141.663
2184.007, 65.975, -141.035
2215.774, 66.160, -140.466
2248.003, 66.355, -139.960
2280.701, 66.547, -139.518
2313.874, 66.746, -139.113
2347.530, 66.948, -138.800
2381.676, 67.150, -138.501
2416.318, 67.344, -138.237
2451.464, 67.536, -137.993
2487.122, 67.731, -137.617
2523.298, 67.952, -137.049
2560.000, 68.272, -136.542
2597.236, 68.620, -136.830
2635.014, 68.908, -137.457
2673.341, 69.187, -138.233
2712.226, 69.412, -139.316
2751.676, 69.572, -140.170
2791.700, 69.751, -140.791
2832.306, 69.944, -141.616
2873.503, 70.073, -142.510
2915.299, 70.183, -142.874
2957.703, 70.385, -142.900
3000.724, 70.680, -143.433
3044.370, 70.950, -144.712
3088.652, 71.126, -146.299
3133.577, 71.200, -147.428
3179.156, 71.344, -147.447
3225.398, 71.731, -148.015
3272.312, 72.098, -150.178
3319.909, 72.330, -152.934
3368.198, 72.458, -155.770
3417.190, 72.509, -158.579
3466.894, 72.496, -161.333
3517.321, 72.423, -164.021
3568.482, 72.273, -166.650
3620.387, 72.020, -169.010
3673.046, 71.673, -170.745
3726.472, 71.278, -171.585
3780.675, 70.861, -171.482
3835.666, 70.441, -169.987
3891.457, 70.185, -166.545
3948.060, 70.377, -161.983
4005.486, 71.074, -159.142
4063.747, 71.886, -159.592
4122.855, 72.561, -162.300
4182.824, 73.023, -166.595
4243.664, 73.163, -171.539
4305.390, 73.046, -175.742
4368.013, 72.814, -178.949
4431.547, 72.533, 178.836
4496.005, 72.279, 177.522
4561.401, 72.115, 176.876
4627.749, 72.085, 176.286
4695.061, 72.139, 175.153
4763.352, 72.223, 173.628
4832.637, 72.356, 171.171
4902.929, 72.373, 167.590
4974.244, 72.204, 163.800
5046.596, 71.891, 160.503
5120.000, 71.547, 157.901
5194.472, 71.207, 155.468
5270.027, 70.834, 153.063
5346.682, 70.417, 150.855
5424.451, 69.974, 148.936
5503.352, 69.534, 147.199
5583.399, 69.089, 145.424
5664.612, 68.634, 143.524
5747.006, 68.134, 141.106
5830.598, 67.471, 138.252
5915.406, 66.566, 135.435
6001.447, 65.339, 133.791
6088.740, 63.915, 134.936
6177.303, 62.559, 139.211
6267.154, 61.487, 146.342
6358.312, 60.977, 154.253
6450.796, 60.689, 160.538
6544.625, 60.413, 167.012
6639.818, 60.379, 174.144
6736.397, 60.623, -179.618
6834.380, 60.946, -174.594
6933.789, 61.335, -169.838
7034.643, 61.882, -165.685
7136.964, 62.537, -162.789
7240.773, 63.227, -160.998
7346.093, 63.956, -160.504
7452.944, 64.617, -161.518
7561.350, 65.144, -163.510
7671.332, 65.489, -166.148
7782.915, 65.652, -168.212
7896.120, 65.919, -169.506
8010.971, 66.304, -172.069
8127.493, 66.567, -175.884
8245.711, 66.731, 179.574
8365.647, 66.679, 174.118
8487.328, 66.445, 168.840
8610.779, 66.090, 163.298
8736.026, 65.755, 155.281
8863.095, 64.106, 148.214
8992.011, 62.407, 147.489
9122.803, 61.112, 148.673
9255.497, 59.744, 150.592
9390.121, 58.493, 154.511
9526.704, 57.319, 159.188
9665.273, 56.073, 165.598
9805.857, 55.025, 175.659
9948.487, 54.563, -172.712
10093.191, 54.550, -161.495
10240.000, 54.805, -150.368
10388.944, 55.520, -138.249
10540.055, 57.120, -128.039
10693.363, 59.167, -123.411
10848.902, 61.250, -124.709
11006.703, 62.863, -131.797
11166.799, 63.585, -141.134
11329.224, 63.548, -148.188
11494.012, 63.458, -151.406
11661.195, 63.689, -154.158
11830.812, 63.952, -158.060
12002.895, 64.195, -162.818
12177.480, 64.330, -168.673
12354.606, 64.278, -175.378
12534.309, 63.999, 177.783
12716.624, 63.572, 170.982
12901.592, 62.918, 164.281
13089.250, 62.081, 158.429
13279.637, 61.150, 154.202
13472.794, 60.433, 151.196
13668.760, 59.960, 146.861
13867.577, 59.563, 140.297
14069.285, 59.020, 129.510
14273.928, 57.578, 114.994
14481.547, 54.892, 102.292
14692.186, 51.390, 97.127
14905.889, 48.268, 101.612
15122.700, 46.573, 108.983
15342.664, 45.739, 110.108
15565.829, 45.264, 105.869
15792.239, 44.967, 93.990
16021.942, 44.505, 74.577
16254.986, 43.979, 53.993
16491.422, 44.321, 35.379
16731.295, 45.479, 18.935
16974.656, 47.565, 3.526
17221.559, 49.967, -17.795
17472.053, 50.783, -46.331
17726.189, 49.586, -69.078
17984.021, 47.771, -82.793
18245.605, 45.674, -91.465
18510.994, 42.916, -93.894
18780.242, 40.561, -81.930
19053.408, 40.570, -68.751
19330.547, 41.420, -67.686
19611.715, 40.382, -75.546
19896.975, 37.323, -69.725
