* Measurement data measured by REW V5.19
* Source: ASIO MOTU M Series, In 1
* Format: 1M Log Swept Sine, 1 sweep at -3.0 dBFS  With no timing reference
* Dated: 9 Jul, 2021 3:51:44 PM
* REW Settings:
*  C-weighting compensation: Off
*  Target level: 75.0 dB
* Note: ; 
* Measurement: Jul 9 15:51:44
* Smoothing: 1/48 octave
* Frequency Step: 1/48 octave
* Start Frequency: 10.1 Hz
*
* Freq(Hz), SPL(dB), Phase(degrees)
10.145, 53.248, -65.868
10.293, 53.347, -66.505
10.443, 53.452, -67.256
10.595, 53.643, -68.083
10.749, 53.871, -68.854
10.905, 54.114, -69.246
11.064, 54.380, -69.536
11.225, 54.676, -70.206
11.388, 54.990, -71.137
11.554, 55.283, -72.269
11.722, 55.555, -73.596
11.892, 55.782, -75.018
12.065, 55.964, -76.519
12.241, 56.095, -77.949
12.419, 56.179, -79.268
12.599, 56.223, -80.276
12.782, 56.240, -80.989
12.968, 56.249, -81.356
13.157, 56.267, -81.426
13.348, 56.308, -81.193
13.543, 56.385, -80.842
13.740, 56.501, -80.418
13.939, 56.650, -80.095
14.142, 56.826, -79.906
14.348, 57.017, -79.929
14.557, 57.210, -80.172
14.768, 57.398, -80.644
14.983, 57.570, -81.316
15.201, 57.721, -82.163
15.422, 57.843, -83.160
15.646, 57.932, -84.229
15.874, 57.988, -85.305
16.105, 58.010, -86.317
16.339, 58.011, -87.156
16.577, 58.008, -87.791
16.818, 58.011, -88.209
17.063, 58.049, -88.475
17.311, 58.128, -88.741
17.563, 58.243, -89.122
17.818, 58.382, -89.726
18.077, 58.521, -90.581
18.340, 58.642, -91.589
18.607, 58.742, -92.630
18.877, 58.824, -93.586
19.152, 58.908, -94.381
19.431, 59.015, -95.072
19.713, 59.149, -95.798
20.000, 59.300, -96.685
20.291, 59.442, -97.775
20.586, 59.553, -98.993
20.885, 59.619, -100.149
21.189, 59.655, -101.033
21.497, 59.697, -101.560
21.810, 59.782, -101.868
22.127, 59.921, -102.255
22.449, 60.085, -102.991
22.776, 60.221, -104.134
23.107, 60.284, -105.460
23.443, 60.267, -106.559
23.784, 60.212, -107.066
24.130, 60.197, -106.923
24.481, 60.288, -106.496
24.837, 60.488, -106.371
25.198, 60.730, -106.951
25.565, 60.932, -108.189
25.937, 61.047, -109.680
26.314, 61.087, -110.955
26.697, 61.104, -111.770
27.085, 61.155, -112.233
27.479, 61.259, -112.654
27.879, 61.389, -113.256
28.284, 61.513, -114.021
28.696, 61.621, -114.806
29.113, 61.723, -115.532
29.537, 61.830, -116.246
29.966, 61.931, -117.012
30.402, 62.016, -117.794
30.844, 62.087, -118.501
31.293, 62.156, -119.120
31.748, 62.230, -119.740
32.210, 62.295, -120.413
32.678, 62.343, -121.057
33.154, 62.384, -121.577
33.636, 62.435, -122.019
34.125, 62.491, -122.483
34.621, 62.535, -122.883
35.125, 62.586, -122.967
35.636, 62.712, -122.775
36.154, 62.953, -122.907
36.680, 63.229, -123.991
37.214, 63.400, -125.950
37.755, 63.399, -127.867
38.304, 63.305, -128.849
38.861, 63.285, -128.966
39.427, 63.388, -129.239
40.000, 63.488, -130.346
40.582, 63.448, -131.657
41.172, 63.322, -132.097
41.771, 63.293, -131.676
42.379, 63.422, -131.562
42.995, 63.569, -132.440
43.620, 63.625, -133.813
44.255, 63.602, -135.150
44.898, 63.516, -136.261
45.552, 63.389, -136.668
46.214, 63.370, -136.188
46.886, 63.560, -136.028
47.568, 63.776, -137.271
48.260, 63.819, -139.030
48.962, 63.763, -139.976
49.674, 63.767, -140.251
50.397, 63.840, -140.570
51.130, 63.923, -141.077
51.874, 63.986, -141.682
52.628, 64.016, -142.097
53.394, 64.081, -142.164
54.170, 64.218, -142.463
54.958, 64.338, -143.362
55.758, 64.374, -144.432
56.569, 64.360, -145.141
57.391, 64.391, -145.562
58.226, 64.451, -146.451
59.073, 64.407, -147.466
59.932, 64.364, -147.688
60.804, 64.434, -148.060
61.688, 64.480, -148.841
62.586, 64.556, -149.609
63.496, 64.610, -151.158
64.420, 64.512, -152.435
65.357, 64.461, -152.942
66.307, 64.450, -153.725
67.272, 64.411, -154.495
68.250, 64.324, -155.400
69.243, 64.165, -155.495
70.250, 64.160, -155.457
71.272, 64.041, -156.321
72.309, 63.863, -155.722
73.360, 63.893, -155.439
74.427, 63.821, -155.451
75.510, 63.870, -154.731
76.608, 63.958, -154.718
77.723, 64.066, -154.272
78.853, 64.256, -154.740
80.000, 64.258, -155.600
81.164, 64.244, -155.801
82.344, 64.218, -156.305
83.542, 64.169, -156.179
84.757, 64.283, -156.213
85.990, 64.356, -156.906
87.241, 64.424, -157.086
88.510, 64.526, -157.318
89.797, 64.615, -157.474
91.103, 64.669, -158.001
92.428, 64.638, -158.229
93.773, 64.702, -158.536
95.137, 64.719, -159.800
96.520, 64.665, -160.602
97.924, 64.703, -161.286
99.349, 64.721, -162.208
100.794, 64.708, -162.805
102.260, 64.709, -163.169
103.747, 64.721, -163.633
105.256, 64.692, -164.156
106.787, 64.663, -164.465
108.340, 64.654, -164.980
109.916, 64.589, -165.355
111.515, 64.585, -165.664
113.137, 64.570, -166.131
114.783, 64.558, -166.554
116.452, 64.568, -167.096
118.146, 64.523, -167.600
119.865, 64.445, -167.932
121.608, 64.368, -167.945
123.377, 64.277, -168.270
125.171, 64.208, -168.172
126.992, 64.232, -168.224
128.839, 64.330, -168.339
130.713, 64.355, -168.569
132.615, 64.419, -168.743
134.543, 64.366, -169.013
136.500, 64.352, -169.273
138.486, 64.333, -169.856
140.500, 64.302, -170.164
142.544, 64.280, -170.373
144.617, 64.261, -170.492
146.721, 64.240, -170.652
148.855, 64.212, -170.900
151.020, 64.168, -170.937
153.217, 64.151, -171.119
155.445, 64.137, -171.416
157.706, 64.148, -171.674
160.000, 64.138, -171.800
162.327, 64.127, -171.877
164.688, 64.109, -172.028
167.084, 64.077, -172.237
169.514, 64.067, -172.439
171.980, 64.063, -172.650
174.481, 64.036, -173.054
177.019, 63.961, -172.917
179.594, 63.973, -172.875
182.206, 63.945, -173.056
184.856, 63.921, -173.178
187.545, 63.914, -173.227
190.273, 63.881, -173.434
193.041, 63.838, -173.463
195.849, 63.828, -173.572
198.697, 63.816, -173.657
201.587, 63.790, -173.735
204.520, 63.749, -173.721
207.494, 63.736, -173.706
210.512, 63.711, -173.802
213.574, 63.669, -173.824
216.681, 63.643, -173.864
219.833, 63.636, -173.905
223.030, 63.625, -173.820
226.274, 63.597, -173.602
229.565, 63.596, -173.682
232.905, 63.568, -173.855
236.292, 63.543, -173.964
239.729, 63.528, -173.986
243.216, 63.514, -173.999
246.754, 63.494, -173.857
250.343, 63.452, -173.801
253.984, 63.435, -173.796
257.678, 63.418, -173.803
261.426, 63.398, -173.742
265.229, 63.395, -173.806
269.087, 63.376, -173.801
273.001, 63.347, -173.744
276.972, 63.333, -173.772
281.000, 63.301, -173.752
285.088, 63.278, -173.647
289.234, 63.265, -173.425
293.441, 63.241, -173.323
297.710, 63.208, -173.191
302.040, 63.203, -173.098
306.433, 63.191, -173.110
310.890, 63.173, -173.001
315.412, 63.152, -172.870
320.000, 63.130, -172.804
324.655, 63.118, -172.686
329.377, 63.107, -172.544
334.168, 63.084, -172.378
339.028, 63.064, -172.241
343.959, 63.038, -172.105
348.962, 63.019, -171.902
354.038, 63.013, -171.760
359.188, 63.007, -171.575
364.412, 62.996, -171.320
369.713, 62.984, -171.139
375.090, 62.974, -171.017
380.546, 62.967, -170.872
386.081, 62.964, -170.613
391.697, 62.934, -170.477
397.395, 62.916, -170.261
403.175, 62.927, -169.961
409.039, 62.915, -169.723
414.989, 62.902, -169.515
421.025, 62.893, -169.236
427.149, 62.886, -168.952
433.362, 62.882, -168.600
439.665, 62.893, -168.347
446.060, 62.902, -168.137
452.548, 62.906, -167.838
459.131, 62.917, -167.557
465.809, 62.922, -167.380
472.584, 62.920, -167.184
479.458, 62.910, -166.944
486.432, 62.925, -166.628
493.507, 62.938, -166.360
500.686, 62.950, -166.125
507.968, 62.958, -165.939
515.357, 62.961, -165.708
522.853, 62.970, -165.488
530.458, 62.975, -165.249
538.174, 62.978, -164.980
546.002, 62.991, -164.704
553.943, 63.012, -164.532
562.001, 63.008, -164.311
570.175, 63.005, -164.060
578.469, 63.008, -163.751
586.883, 63.010, -163.456
595.419, 63.006, -163.051
604.080, 63.028, -162.747
612.866, 63.044, -162.484
621.780, 63.059, -162.273
630.824, 63.059, -161.950
640.000, 63.066, -161.548
649.309, 63.087, -161.156
658.753, 63.104, -160.828
668.335, 63.121, -160.490
678.056, 63.142, -160.165
687.919, 63.163, -159.824
697.925, 63.187, -159.472
708.076, 63.210, -159.157
718.376, 63.221, -158.869
728.825, 63.227, -158.422
739.426, 63.262, -157.996
750.181, 63.281, -157.666
761.093, 63.310, -157.187
772.163, 63.357, -156.773
783.394, 63.391, -156.475
794.789, 63.437, -156.072
806.349, 63.492, -155.828
818.078, 63.518, -155.678
829.977, 63.536, -155.456
842.050, 63.553, -155.232
854.297, 63.545, -154.971
866.724, 63.546, -154.581
879.330, 63.508, -154.180
892.120, 63.480, -153.311
905.097, 63.484, -152.319
918.262, 63.555, -151.175
931.618, 63.667, -150.400
945.169, 63.761, -149.724
958.917, 63.876, -149.127
972.864, 63.986, -148.658
987.015, 64.077, -148.197
1001.371, 64.183, -147.639
1015.937, 64.334, -147.163
1030.714, 64.469, -147.038
1045.706, 64.584, -147.042
1060.916, 64.670, -146.942
1076.347, 64.771, -146.883
1092.003, 64.847, -146.902
1107.887, 64.909, -146.871
1124.001, 64.957, -146.703
1140.350, 65.021, -146.468
1156.937, 65.065, -146.346
1173.765, 65.113, -145.863
1190.838, 65.183, -145.447
1208.159, 65.266, -144.836
1225.732, 65.388, -144.386
1243.561, 65.507, -144.035
1261.649, 65.645, -143.700
1280.000, 65.812, -143.576
1298.618, 65.926, -143.708
1317.507, 66.052, -143.650
1336.670, 66.175, -143.710
1356.113, 66.320, -144.072
1375.838, 66.377, -144.641
1395.850, 66.407, -144.756
1416.153, 66.450, -144.873
1436.751, 66.451, -144.768
1457.649, 66.488, -144.251
1478.851, 66.626, -143.603
1500.362, 66.790, -143.462
1522.185, 66.906, -143.701
1544.326, 67.044, -143.733
1566.789, 67.154, -144.149
1589.578, 67.196, -144.497
1612.699, 67.266, -144.454
1636.156, 67.371, -144.513
1659.955, 67.451, -144.944
1684.099, 67.510, -144.940
1708.595, 67.593, -145.580
1733.447, 67.497, -146.123
1758.661, 67.373, -145.391
1784.241, 67.419, -144.245
1810.193, 67.498, -143.397
1836.523, 67.618, -142.192
1863.236, 67.864, -141.316
1890.338, 68.098, -140.953
1917.833, 68.380, -140.991
1945.729, 68.631, -141.567
1974.030, 68.801, -142.416
2002.743, 68.922, -143.306
2031.873, 68.980, -144.060
2061.428, 69.050, -144.423
2091.412, 69.137, -145.150
2121.832, 69.128, -145.622
2152.695, 69.118, -145.908
2184.007, 69.089, -145.681
2215.774, 69.103, -145.568
2248.003, 69.041, -145.167
2280.701, 69.005, -143.633
2313.874, 69.099, -141.867
2347.530, 69.309, -139.569
2381.676, 69.699, -137.705
2416.318, 70.215, -136.154
2451.464, 70.918, -135.838
2487.122, 71.552, -137.645
2523.298, 71.989, -140.298
2560.000, 72.243, -142.805
2597.236, 72.447, -144.827
2635.014, 72.637, -146.471
2673.341, 72.854, -148.064
2712.226, 73.114, -149.660
2751.676, 73.460, -151.617
2791.700, 73.784, -155.246
2832.306, 73.795, -159.371
2873.503, 73.671, -162.174
2915.299, 73.612, -163.871
2957.703, 73.666, -165.827
3000.724, 73.744, -168.319
3044.370, 73.769, -171.193
3088.652, 73.746, -174.368
3133.577, 73.631, -177.775
3179.156, 73.452, 178.797
3225.398, 73.153, 175.233
3272.312, 72.734, 172.189
3319.909, 72.248, 169.565
3368.198, 71.703, 167.424
3417.190, 71.117, 165.630
3466.894, 70.420, 164.237
3517.321, 69.610, 163.908
3568.482, 68.763, 164.706
3620.387, 67.850, 166.886
3673.046, 66.927, 171.293
3726.472, 66.188, 178.424
3780.675, 65.949, -172.062
3835.666, 66.423, -162.841
3891.457, 67.420, -156.064
3948.060, 68.653, -153.018
4005.486, 69.780, -153.522
4063.747, 70.640, -156.542
4122.855, 71.124, -160.538
4182.824, 71.316, -163.983
4243.664, 71.408, -166.173
4305.390, 71.597, -168.051
4368.013, 71.752, -170.574
4431.547, 71.814, -173.142
4496.005, 71.863, -175.575
4561.401, 71.888, -178.629
4627.749, 71.723, 177.608
4695.061, 71.295, 174.771
4763.352, 70.820, 173.491
4832.637, 70.387, 172.899
4902.929, 69.916, 172.936
4974.244, 69.443, 174.249
5046.596, 69.102, 176.868
5120.000, 68.987, -179.978
5194.472, 69.078, -177.024
5270.027, 69.297, -174.567
5346.682, 69.629, -172.400
5424.451, 70.117, -170.944
5503.352, 70.664, -170.524
5583.399, 71.298, -170.925
5664.612, 71.983, -172.877
5747.006, 72.622, -176.591
5830.598, 73.056, 177.987
5915.406, 73.226, 171.873
6001.447, 73.136, 165.431
6088.740, 72.747, 159.649
6177.303, 72.214, 155.061
6267.154, 71.589, 151.535
6358.312, 70.938, 148.828
6450.796, 70.214, 146.923
6544.625, 69.474, 146.238
6639.818, 68.796, 146.669
6736.397, 68.246, 147.822
6834.380, 67.842, 149.164
6933.789, 67.528, 150.161
7034.643, 67.232, 150.962
7136.964, 66.927, 151.786
7240.773, 66.668, 153.031
7346.093, 66.488, 154.181
7452.944, 66.344, 155.153
7561.350, 66.199, 156.304
7671.332, 66.174, 158.046
7782.915, 66.410, 159.475
7896.120, 66.835, 159.101
8010.971, 67.234, 156.425
8127.493, 67.451, 152.029
8245.711, 67.459, 146.435
8365.647, 67.187, 139.773
8487.328, 66.520, 132.788
8610.779, 65.428, 126.737
8736.026, 63.993, 123.467
8863.095, 62.586, 122.163
8992.011, 61.034, 123.226
9122.803, 59.747, 125.845
9255.497, 58.495, 128.022
9390.121, 57.030, 131.065
9526.704, 55.308, 136.384
9665.273, 53.374, 147.518
9805.857, 52.256, 165.950
9948.487, 52.778, -176.536
10093.191, 53.918, -165.387
10240.000, 54.899, -158.184
10388.944, 56.026, -151.504
10540.055, 57.483, -148.036
10693.363, 58.691, -149.353
10848.902, 59.432, -152.371
11006.703, 59.859, -155.676
11166.799, 60.046, -159.053
11329.224, 59.979, -162.298
11494.012, 59.626, -164.814
11661.195, 59.073, -165.280
11830.812, 58.529, -163.517
12002.895, 58.192, -159.966
12177.480, 58.137, -155.908
12354.606, 58.351, -151.948
12534.309, 58.850, -148.704
12716.624, 59.612, -147.391
12901.592, 60.472, -148.917
13089.250, 61.186, -153.727
13279.637, 61.489, -160.859
13472.794, 61.362, -168.026
13668.760, 61.033, -174.573
13867.577, 60.578, 178.868
14069.285, 60.027, 171.936
14273.928, 59.368, 163.727
14481.547, 58.504, 153.509
14692.186, 57.346, 140.411
14905.889, 55.751, 123.126
15122.700, 53.681, 101.094
15342.664, 51.747, 74.291
15565.829, 51.184, 45.179
15792.239, 52.367, 20.707
16021.942, 54.662, 4.252
16254.986, 57.508, -7.833
16491.422, 60.686, -20.685
16731.295, 63.454, -40.612
16974.656, 64.582, -66.354
17221.559, 64.120, -87.341
17472.053, 63.126, -100.625
17726.189, 62.169, -109.195
17984.021, 61.519, -116.156
18245.605, 60.866, -126.159
18510.994, 59.213, -137.693
18780.242, 56.212, -140.929
19053.408, 53.079, -127.543
19330.547, 52.787, -106.489
19611.715, 54.499, -96.789
19896.975, 55.737, -96.957
