* Measurement data measured by REW V5.19
* Source: ASIO MOTU M Series, In 1
* Format: 512k Log Swept Sine, 2 sweeps at -10.0 dBFS  With no timing reference
* Dated: 10 Sep, 2020 7:40:11 PM
* REW Settings:
*  C-weighting compensation: Off
*  Target level: 75.0 dB
* Note: ; 
* Measurement: Sep 10 19:40:11
* Smoothing: None
* Frequency Step: 1/48 octave
* Start Frequency: 10.1 Hz
*
* Freq(Hz), SPL(dB), Phase(degrees)
10.145, 63.436, -50.600
10.293, 63.546, -51.859
10.443, 63.658, -53.208
10.595, 63.771, -54.346
10.749, 63.887, -55.450
10.905, 64.010, -56.536
11.064, 64.139, -57.612
11.225, 64.273, -58.714
11.388, 64.411, -59.837
11.554, 64.551, -61.004
11.722, 64.690, -62.212
11.892, 64.826, -63.452
12.065, 64.958, -64.722
12.241, 65.086, -65.998
12.419, 65.209, -67.279
12.599, 65.330, -68.548
12.782, 65.451, -69.815
12.968, 65.575, -71.086
13.157, 65.699, -72.382
13.348, 65.825, -73.721
13.543, 65.947, -75.118
13.740, 66.062, -76.578
13.939, 66.161, -78.073
14.142, 66.243, -79.566
14.348, 66.302, -80.997
14.557, 66.347, -82.278
14.768, 66.381, -83.365
14.983, 66.426, -84.197
15.201, 66.497, -84.835
15.422, 66.610, -85.317
15.646, 66.776, -85.861
15.874, 66.983, -86.601
16.105, 67.221, -87.681
16.339, 67.448, -89.179
16.577, 67.640, -91.010
16.818, 67.771, -93.073
17.063, 67.822, -95.122
17.311, 67.804, -96.879
17.563, 67.739, -98.154
17.818, 67.665, -98.788
18.077, 67.645, -98.812
18.340, 67.721, -98.558
18.607, 67.897, -98.402
18.877, 68.150, -98.704
19.152, 68.423, -99.689
19.431, 68.650, -101.271
19.713, 68.796, -103.175
20.000, 68.850, -105.073
20.291, 68.829, -106.658
20.586, 68.772, -107.727
20.885, 68.732, -108.268
21.189, 68.752, -108.485
21.497, 68.844, -108.718
21.810, 68.983, -109.240
22.127, 69.132, -110.151
22.449, 69.257, -111.388
22.776, 69.339, -112.793
23.107, 69.376, -114.200
23.443, 69.375, -115.477
23.784, 69.351, -116.542
24.130, 69.321, -117.356
24.481, 69.302, -117.927
24.837, 69.312, -118.323
25.198, 69.359, -118.679
25.565, 69.439, -119.148
25.937, 69.531, -119.826
26.314, 69.609, -120.698
26.697, 69.660, -121.649
27.085, 69.682, -122.534
27.479, 69.692, -123.257
27.879, 69.707, -123.812
28.284, 69.746, -124.282
28.696, 69.813, -124.799
29.113, 69.899, -125.510
29.537, 69.981, -126.500
29.966, 70.026, -127.694
30.402, 70.020, -128.856
30.844, 69.987, -129.718
31.293, 69.981, -130.249
31.748, 70.039, -130.768
32.210, 70.131, -131.666
32.678, 70.188, -132.952
33.154, 70.171, -134.208
33.636, 70.122, -134.991
34.125, 70.117, -135.351
34.621, 70.177, -135.750
35.125, 70.245, -136.447
35.636, 70.276, -137.196
36.154, 70.296, -137.688
36.680, 70.349, -138.037
37.214, 70.431, -138.571
37.755, 70.500, -139.347
38.304, 70.537, -140.197
38.861, 70.554, -141.022
39.427, 70.556, -141.798
40.000, 70.557, -142.477
40.582, 70.581, -143.204
41.172, 70.593, -144.197
41.771, 70.539, -145.135
42.379, 70.482, -145.402
42.995, 70.557, -145.441
43.620, 70.695, -146.385
44.255, 70.699, -147.841
44.898, 70.609, -148.377
45.552, 70.653, -148.209
46.214, 70.790, -148.825
46.886, 70.817, -149.864
47.568, 70.817, -150.184
48.260, 70.934, -150.663
48.962, 70.986, -152.070
49.674, 70.879, -152.956
50.397, 70.859, -152.792
51.130, 70.989, -153.255
51.874, 71.037, -154.607
52.628, 70.981, -155.649
53.394, 70.941, -156.334
54.170, 70.904, -157.027
54.958, 70.879, -157.534
55.758, 70.898, -158.254
56.569, 70.863, -159.283
57.391, 70.798, -159.764
58.226, 70.853, -160.160
59.073, 70.914, -161.373
59.932, 70.886, -162.499
60.804, 70.887, -163.395
61.688, 70.853, -164.492
62.586, 70.801, -165.091
63.496, 70.819, -166.005
64.420, 70.729, -167.453
65.357, 70.560, -168.541
66.307, 70.355, -169.547
67.272, 70.156, -170.248
68.250, 69.953, -171.812
69.243, 69.485, -172.932
70.250, 69.096, -172.471
71.272, 68.616, -172.237
72.309, 68.100, -168.445
73.360, 68.213, -164.602
74.427, 68.204, -162.356
75.510, 68.434, -158.814
76.608, 68.809, -158.011
77.723, 68.983, -157.571
78.853, 69.187, -157.358
80.000, 69.328, -157.768
81.164, 69.296, -157.277
82.344, 69.623, -155.757
83.542, 69.882, -156.878
84.757, 70.015, -156.608
85.990, 70.306, -157.334
87.241, 70.392, -158.373
88.510, 70.649, -158.844
89.797, 70.671, -161.500
91.103, 70.614, -161.402
92.428, 70.648, -161.968
93.773, 70.938, -162.347
95.137, 70.940, -164.776
96.520, 70.930, -165.616
97.924, 70.919, -165.953
99.349, 70.976, -166.561
100.794, 70.955, -167.064
102.260, 70.819, -167.507
103.747, 70.688, -167.808
105.256, 70.437, -166.711
106.787, 70.767, -166.768
108.340, 70.635, -167.102
109.916, 70.898, -167.657
111.515, 70.940, -168.059
113.137, 70.996, -169.108
114.783, 70.915, -169.569
116.452, 70.993, -170.107
118.146, 70.959, -170.606
119.865, 70.960, -170.844
121.608, 71.065, -171.708
123.377, 71.050, -172.075
125.171, 70.957, -172.978
126.992, 71.019, -173.448
128.839, 70.960, -173.171
130.713, 70.940, -173.720
132.615, 70.876, -174.222
134.543, 70.926, -174.446
136.500, 71.007, -174.945
138.486, 71.020, -175.474
140.500, 70.947, -175.625
142.544, 70.985, -176.086
144.617, 70.981, -176.840
146.721, 70.845, -177.071
148.855, 70.937, -177.396
151.020, 70.859, -177.475
153.217, 70.807, -178.463
155.445, 70.785, -178.598
157.706, 70.782, -179.099
160.000, 70.712, -179.693
162.327, 70.758, -179.355
164.688, 70.721, 179.721
167.084, 70.721, 179.710
169.514, 70.712, 178.993
171.980, 70.672, 178.631
174.481, 70.676, 178.340
177.019, 70.593, 178.233
179.594, 70.690, 178.160
182.206, 70.594, 177.539
184.856, 70.561, 177.862
187.545, 70.571, 176.873
190.273, 70.495, 177.119
193.041, 70.485, 176.589
195.849, 70.328, 176.530
198.697, 70.394, 175.876
201.587, 70.439, 175.705
204.520, 70.372, 175.183
207.494, 70.286, 175.088
210.512, 70.351, 174.800
213.574, 70.263, 174.664
216.681, 70.287, 174.348
219.833, 70.260, 174.323
223.030, 70.252, 174.488
226.274, 70.133, 173.532
229.565, 70.113, 173.219
232.905, 70.083, 172.658
236.292, 70.073, 172.791
239.729, 70.018, 172.396
243.216, 69.934, 172.256
246.754, 69.958, 172.280
250.343, 69.880, 171.126
253.984, 69.825, 172.312
257.678, 69.805, 171.781
261.426, 69.834, 172.026
265.229, 69.750, 171.038
269.087, 69.743, 170.952
273.001, 69.747, 170.727
276.972, 69.631, 171.087
281.000, 69.584, 170.517
285.088, 69.594, 170.311
289.234, 69.557, 169.886
293.441, 69.381, 169.475
297.710, 69.448, 169.482
302.040, 69.402, 169.242
306.433, 69.376, 169.246
310.890, 69.271, 169.381
315.412, 69.143, 168.970
320.000, 69.112, 169.006
324.655, 69.233, 168.699
329.377, 68.979, 168.858
334.168, 69.031, 168.299
339.028, 68.940, 168.242
343.959, 68.887, 167.778
348.962, 68.890, 167.880
354.038, 68.702, 168.194
359.188, 68.803, 168.113
364.412, 68.729, 167.632
369.713, 68.696, 167.824
375.090, 68.630, 167.060
380.546, 68.404, 167.230
386.081, 68.448, 168.216
391.697, 68.462, 167.950
397.395, 68.353, 167.848
403.175, 68.330, 167.277
409.039, 68.196, 167.554
414.989, 68.119, 167.541
421.025, 68.058, 167.352
427.149, 68.117, 167.310
433.362, 68.076, 167.294
439.665, 67.886, 167.378
446.060, 67.919, 166.791
452.548, 67.709, 167.816
459.131, 67.844, 167.561
465.809, 67.752, 168.702
472.584, 67.570, 167.492
479.458, 67.510, 169.234
486.432, 67.562, 167.655
493.507, 67.514, 168.475
500.686, 67.287, 169.328
507.968, 67.327, 168.891
515.357, 67.253, 169.055
522.853, 67.277, 168.916
530.458, 67.327, 169.955
538.174, 67.369, 169.332
546.002, 67.314, 168.643
553.943, 67.159, 168.064
562.001, 66.968, 168.065
570.175, 66.847, 168.594
578.469, 66.731, 168.646
586.883, 66.674, 169.108
595.419, 66.716, 168.462
604.080, 66.567, 169.417
612.866, 66.532, 170.414
621.780, 66.353, 168.911
630.824, 66.360, 170.541
640.000, 66.273, 170.727
649.309, 66.169, 170.075
658.753, 65.987, 171.369
668.335, 66.170, 172.404
678.056, 65.834, 172.035
687.919, 65.853, 172.296
697.925, 65.832, 172.034
708.076, 65.685, 172.191
718.376, 65.762, 172.756
728.825, 65.795, 173.958
739.426, 65.660, 173.597
750.181, 65.455, 173.914
761.093, 65.291, 174.458
772.163, 65.189, 175.035
783.394, 65.149, 175.837
794.789, 64.951, 176.994
806.349, 65.036, 177.232
818.078, 64.986, 176.884
829.977, 64.898, 176.783
842.050, 64.757, 179.325
854.297, 64.657, -179.688
866.724, 64.740, -179.347
879.330, 64.703, -178.522
892.120, 64.610, -177.364
905.097, 64.454, -176.544
918.262, 64.376, -175.140
931.618, 64.434, -174.156
945.169, 64.363, -173.008
958.917, 64.498, -172.752
972.864, 64.554, -171.948
987.015, 64.345, -169.988
1001.371, 64.376, -169.246
1015.937, 64.404, -168.026
1030.714, 64.496, -167.676
1045.706, 64.701, -166.949
1060.916, 64.863, -166.219
1076.347, 64.649, -165.188
1092.003, 64.952, -164.475
1107.887, 64.924, -163.484
1124.001, 64.853, -164.098
1140.350, 64.801, -162.643
1156.937, 65.045, -161.588
1173.765, 64.920, -160.419
1190.838, 65.048, -158.978
1208.159, 65.161, -160.285
1225.732, 65.267, -160.129
1243.561, 65.276, -159.290
1261.649, 65.464, -158.774
1280.000, 65.472, -158.956
1298.618, 65.561, -160.155
1317.507, 65.767, -157.248
1336.670, 65.621, -158.235
1356.113, 65.279, -157.654
1375.838, 65.208, -157.398
1395.850, 65.227, -157.788
1416.153, 65.431, -155.048
1436.751, 65.513, -154.255
1457.649, 65.431, -153.430
1478.851, 65.629, -152.413
1500.362, 66.007, -151.936
1522.185, 65.730, -152.908
1544.326, 65.766, -149.746
1566.789, 65.777, -151.802
1589.578, 65.850, -150.147
1612.699, 65.768, -148.498
1636.156, 65.837, -148.736
1659.955, 65.894, -149.535
1684.099, 66.279, -148.916
1708.595, 65.903, -145.351
1733.447, 66.152, -147.272
1758.661, 66.107, -144.951
1784.241, 66.008, -144.088
1810.193, 66.619, -142.352
1836.523, 66.015, -142.672
1863.236, 66.349, -139.628
1890.338, 66.303, -138.134
1917.833, 66.792, -138.861
1945.729, 66.969, -138.638
1974.030, 67.240, -136.856
2002.743, 67.001, -135.526
2031.873, 67.313, -137.168
2061.428, 67.337, -136.650
2091.412, 67.868, -136.426
2121.832, 67.435, -135.637
2152.695, 67.670, -135.684
2184.007, 67.300, -133.929
2215.774, 67.717, -135.264
2248.003, 67.759, -133.543
2280.701, 67.783, -131.179
2313.874, 67.787, -129.244
2347.530, 67.559, -127.552
2381.676, 67.616, -125.665
2416.318, 68.203, -125.438
2451.464, 68.551, -123.679
2487.122, 69.265, -120.923
2523.298, 68.954, -120.443
2560.000, 69.573, -117.639
2597.236, 69.678, -118.130
2635.014, 70.513, -116.837
2673.341, 70.994, -116.674
2712.226, 71.475, -117.148
2751.676, 71.829, -116.768
2791.700, 72.350, -119.648
2832.306, 72.717, -121.347
2873.503, 72.657, -122.355
2915.299, 73.393, -122.585
2957.703, 73.317, -125.449
3000.724, 73.891, -128.471
3044.370, 74.102, -130.393
3088.652, 74.368, -132.955
3133.577, 74.326, -135.754
3179.156, 74.332, -135.890
3225.398, 74.416, -137.314
3272.312, 74.517, -141.760
3319.909, 74.377, -144.570
3368.198, 74.283, -143.880
3417.190, 74.127, -147.979
3466.894, 74.157, -147.207
3517.321, 74.093, -149.386
3568.482, 73.593, -148.966
3620.387, 73.143, -151.884
3673.046, 73.258, -153.651
3726.472, 72.770, -145.890
3780.675, 72.827, -146.562
3835.666, 72.655, -146.870
3891.457, 72.920, -146.818
3948.060, 72.927, -143.379
4005.486, 73.187, -141.741
4063.747, 73.320, -142.879
4122.855, 73.602, -142.085
4182.824, 73.890, -141.866
4243.664, 74.016, -142.298
4305.390, 74.244, -139.360
4368.013, 74.556, -140.030
4431.547, 74.736, -140.780
4496.005, 75.445, -142.902
4561.401, 75.399, -146.608
4627.749, 75.493, -148.031
4695.061, 75.391, -151.546
4763.352, 75.678, -150.904
4832.637, 75.409, -152.657
4902.929, 75.488, -153.655
4974.244, 75.530, -156.174
5046.596, 75.739, -155.943
5120.000, 75.511, -159.630
5194.472, 75.906, -158.041
5270.027, 75.774, -159.635
5346.682, 75.696, -160.857
5424.451, 75.622, -163.614
5503.352, 75.929, -164.233
5583.399, 75.678, -168.603
5664.612, 75.853, -169.385
5747.006, 75.520, -172.678
5830.598, 74.942, -174.647
5915.406, 74.224, -177.144
6001.447, 73.843, -174.855
6088.740, 73.526, -169.035
6177.303, 73.528, -166.239
6267.154, 73.954, -159.167
6358.312, 74.615, -158.759
6450.796, 75.514, -162.711
6544.625, 76.057, -165.102
6639.818, 76.407, -169.794
6736.397, 76.441, -173.200
6834.380, 76.219, 179.909
6933.789, 76.001, 174.129
7034.643, 75.304, 169.128
7136.964, 74.514, 168.828
7240.773, 73.731, 166.914
7346.093, 73.433, 167.721
7452.944, 73.074, 169.185
7561.350, 72.648, 168.868
7671.332, 72.580, 174.305
7782.915, 72.635, 174.108
7896.120, 72.631, 174.846
8010.971, 73.355, 176.169
8127.493, 73.756, 174.913
8245.711, 74.536, 169.722
8365.647, 75.264, 160.615
8487.328, 75.304, 149.385
8610.779, 74.207, 133.526
8736.026, 72.734, 120.599
8863.095, 70.195, 107.141
8992.011, 65.901, 100.505
9122.803, 60.839, 102.444
9255.497, 53.319, 134.814
9390.121, 55.197, -166.945
9526.704, 60.009, -150.210
9665.273, 62.108, -140.088
9805.857, 64.918, -134.229
9948.487, 67.398, -137.440
10093.191, 69.109, -143.148
10240.000, 70.654, -152.827
10388.944, 71.359, -164.679
10540.055, 71.602, -175.783
10693.363, 70.870, 174.640
10848.902, 70.193, 166.341
11006.703, 69.121, 159.905
11166.799, 68.253, 155.695
11329.224, 66.773, 150.420
11494.012, 65.736, 149.333
11661.195, 64.341, 150.539
11830.812, 62.255, 152.724
12002.895, 61.376, 159.587
12177.480, 60.632, 171.482
12354.606, 61.235, 176.784
12534.309, 61.115, -179.024
12716.624, 60.216, -169.917
12901.592, 61.064, -165.125
13089.250, 63.015, -163.579
13279.637, 63.978, -170.253
13472.794, 64.046, -176.848
13668.760, 63.966, 177.679
13867.577, 64.114, 172.001
14069.285, 63.774, 164.042
14273.928, 62.846, 153.923
14481.547, 61.317, 147.294
14692.186, 59.381, 142.478
14905.889, 56.602, 139.352
15122.700, 54.049, 152.615
15342.664, 52.545, 155.794
15565.829, 51.891, 169.085
15792.239, 51.867, -173.766
16021.942, 53.457, -166.208
16254.986, 54.880, -168.134
16491.422, 54.949, -174.805
16731.295, 55.143, -179.762
16974.656, 54.893, 171.991
17221.559, 54.138, 160.840
17472.053, 52.062, 155.711
17726.189, 50.284, 158.401
17984.021, 49.614, 161.774
18245.605, 48.930, 164.137
18510.994, 48.893, 162.723
18780.242, 48.818, 150.392
19053.408, 46.569, 132.510
19330.547, 41.570, 129.289
19611.715, 38.352, 142.634
19896.975, 37.127, 154.466
