* Measurement data measured by REW V5.19
* Source: ASIO MOTU M Series, In 1
* Format: 1M Log Swept Sine, 1 sweep at -3.0 dBFS  With no timing reference
* Dated: 10 Nov, 2020 3:27:49 PM
* REW Settings:
*  C-weighting compensation: Off
*  Target level: 75.0 dB
* Note: ; 
* Measurement: Nov 10 15:27:49
* Smoothing: None
* Frequency Step: 1/48 octave
* Start Frequency: 10.1 Hz
*
* Freq(Hz), SPL(dB), Phase(degrees)
10.145, 63.977, -89.386
10.293, 64.044, -90.389
10.443, 64.112, -91.484
10.595, 64.188, -92.440
10.749, 64.269, -93.402
10.905, 64.354, -94.399
11.064, 64.441, -95.429
11.225, 64.525, -96.510
11.388, 64.604, -97.632
11.554, 64.671, -98.766
11.722, 64.728, -99.904
11.892, 64.772, -100.975
12.065, 64.805, -101.972
12.241, 64.836, -102.829
12.419, 64.870, -103.558
12.599, 64.921, -104.153
12.782, 64.993, -104.673
12.968, 65.098, -105.189
13.157, 65.227, -105.809
13.348, 65.383, -106.615
13.543, 65.538, -107.683
13.740, 65.686, -109.036
13.939, 65.795, -110.623
14.142, 65.858, -112.359
14.348, 65.855, -114.122
14.557, 65.793, -115.684
14.768, 65.673, -116.934
14.983, 65.526, -117.630
15.201, 65.390, -117.774
15.422, 65.300, -117.335
15.646, 65.307, -116.634
15.874, 65.410, -115.970
16.105, 65.607, -115.664
16.339, 65.838, -116.018
16.577, 66.058, -116.986
16.818, 66.225, -118.496
17.063, 66.304, -120.265
17.311, 66.295, -121.966
17.563, 66.216, -123.371
17.818, 66.098, -124.279
18.077, 65.996, -124.642
18.340, 65.952, -124.689
18.607, 65.978, -124.705
18.877, 66.061, -124.977
19.152, 66.161, -125.702
19.431, 66.228, -126.813
19.713, 66.236, -128.070
20.000, 66.183, -129.200
20.291, 66.095, -129.974
20.586, 66.011, -130.299
20.885, 65.976, -130.280
21.189, 66.011, -130.193
21.497, 66.101, -130.328
21.810, 66.209, -130.810
22.127, 66.299, -131.573
22.449, 66.354, -132.434
22.776, 66.377, -133.198
23.107, 66.391, -133.758
23.443, 66.418, -134.134
23.784, 66.472, -134.443
24.130, 66.550, -134.812
24.481, 66.637, -135.307
24.837, 66.720, -135.919
25.198, 66.793, -136.598
25.565, 66.855, -137.303
25.937, 66.907, -138.021
26.314, 66.950, -138.748
26.697, 66.982, -139.475
27.085, 67.003, -140.177
27.479, 67.017, -140.840
27.879, 67.027, -141.472
28.284, 67.032, -142.087
28.696, 67.028, -142.665
29.113, 67.018, -143.152
29.537, 67.013, -143.506
29.966, 67.030, -143.787
30.402, 67.074, -144.149
30.844, 67.125, -144.735
31.293, 67.147, -145.519
31.748, 67.123, -146.293
32.210, 67.065, -146.818
32.678, 67.012, -147.030
33.154, 66.993, -147.092
33.636, 67.001, -147.229
34.125, 67.009, -147.507
34.621, 67.003, -147.831
35.125, 66.986, -148.102
35.636, 66.970, -148.324
36.154, 66.954, -148.528
36.680, 66.933, -148.667
37.214, 66.918, -148.652
37.755, 66.935, -148.503
38.304, 67.000, -148.415
38.861, 67.089, -148.632
39.427, 67.154, -149.145
40.000, 67.165, -149.644
40.582, 67.150, -149.786
41.172, 67.163, -149.593
41.771, 67.220, -149.318
42.379, 67.310, -149.078
42.995, 67.442, -148.942
43.620, 67.610, -149.250
44.255, 67.736, -150.145
44.898, 67.764, -151.087
45.552, 67.769, -151.541
46.214, 67.848, -151.928
46.886, 67.950, -152.930
47.568, 67.973, -154.305
48.260, 67.928, -155.522
48.962, 67.840, -156.525
49.674, 67.704, -156.994
50.397, 67.636, -156.618
51.130, 67.722, -156.501
51.874, 67.768, -157.391
52.628, 67.662, -158.029
53.394, 67.580, -157.895
54.170, 67.539, -158.021
54.958, 67.422, -158.025
55.758, 67.352, -157.459
56.569, 67.332, -157.321
57.391, 67.225, -157.088
58.226, 67.176, -156.049
59.073, 67.246, -155.164
59.932, 67.350, -154.523
60.804, 67.500, -154.196
61.688, 67.600, -154.223
62.586, 67.677, -153.807
63.496, 67.821, -153.424
64.420, 67.954, -153.271
65.357, 68.112, -153.129
66.307, 68.275, -153.449
67.272, 68.401, -153.867
68.250, 68.532, -154.434
69.243, 68.633, -155.013
70.250, 68.780, -155.436
71.272, 68.950, -156.322
72.309, 69.069, -157.318
73.360, 69.162, -158.324
74.427, 69.195, -159.182
75.510, 69.237, -159.718
76.608, 69.272, -160.439
77.723, 69.286, -161.008
78.853, 69.308, -161.730
80.000, 69.308, -162.275
81.164, 69.340, -162.888
82.344, 69.361, -163.187
83.542, 69.472, -163.726
84.757, 69.497, -164.396
85.990, 69.574, -164.826
87.241, 69.621, -165.501
88.510, 69.696, -166.287
89.797, 69.714, -167.263
91.103, 69.751, -168.033
92.428, 69.802, -168.955
93.773, 69.805, -169.943
95.137, 69.817, -170.632
96.520, 69.788, -171.493
97.924, 69.779, -171.998
99.349, 69.782, -172.902
100.794, 69.749, -173.952
102.260, 69.678, -174.610
103.747, 69.671, -175.460
105.256, 69.552, -176.153
106.787, 69.500, -176.442
108.340, 69.448, -176.907
109.916, 69.398, -177.279
111.515, 69.408, -177.475
113.137, 69.389, -178.013
114.783, 69.382, -178.270
116.452, 69.359, -178.616
118.146, 69.370, -179.271
119.865, 69.344, 179.911
121.608, 69.330, 179.003
123.377, 69.273, 178.465
125.171, 69.215, 177.779
126.992, 69.142, 177.339
128.839, 69.063, 176.590
130.713, 68.920, 175.206
132.615, 68.933, 175.352
134.543, 68.812, 174.709
136.500, 68.724, 174.114
138.486, 68.609, 173.642
140.500, 68.473, 173.367
142.544, 68.342, 173.075
144.617, 68.217, 173.196
146.721, 68.080, 173.743
148.855, 68.058, 173.479
151.020, 68.050, 173.371
153.217, 67.955, 173.614
155.445, 67.899, 173.457
157.706, 67.795, 173.115
160.000, 67.710, 172.998
162.327, 67.716, 172.706
164.688, 67.642, 172.817
167.084, 67.484, 172.857
169.514, 67.397, 172.782
171.980, 67.309, 172.765
174.481, 67.189, 172.874
177.019, 67.068, 173.010
179.594, 66.952, 173.262
182.206, 66.871, 173.994
184.856, 66.804, 174.754
187.545, 66.738, 175.647
190.273, 66.742, 176.340
193.041, 66.800, 177.187
195.849, 66.837, 177.717
198.697, 66.939, 178.043
201.587, 67.035, 178.080
204.520, 67.167, 177.672
207.494, 67.230, 177.128
210.512, 67.282, 176.394
213.574, 67.286, 175.539
216.681, 67.210, 174.710
219.833, 67.083, 173.497
223.030, 66.876, 172.349
226.274, 66.614, 172.459
229.565, 66.429, 172.701
232.905, 66.185, 173.515
236.292, 66.036, 174.498
239.729, 65.972, 175.454
243.216, 65.926, 176.616
246.754, 65.880, 177.800
250.343, 65.875, 178.496
253.984, 65.908, 179.202
257.678, 65.947, -179.967
261.426, 65.957, -179.529
265.229, 65.995, -179.097
269.087, 66.008, -178.747
273.001, 66.025, -178.506
276.972, 66.021, -178.239
281.000, 65.991, -178.209
285.088, 66.003, -177.739
289.234, 65.922, -177.248
293.441, 65.918, -176.772
297.710, 65.865, -176.180
302.040, 65.823, -175.228
306.433, 65.829, -174.453
310.890, 65.854, -173.498
315.412, 65.899, -172.496
320.000, 65.937, -171.623
324.655, 66.004, -170.720
329.377, 66.159, -169.856
334.168, 66.263, -169.360
339.028, 66.396, -168.660
343.959, 66.528, -168.487
348.962, 66.630, -168.396
354.038, 66.799, -168.023
359.188, 66.878, -167.802
364.412, 66.984, -167.618
369.713, 67.090, -167.416
375.090, 67.189, -167.137
380.546, 67.293, -166.870
386.081, 67.418, -166.795
391.697, 67.565, -166.420
397.395, 67.688, -166.314
403.175, 67.910, -166.873
409.039, 68.061, -166.484
414.989, 68.265, -166.848
421.025, 68.487, -167.718
427.149, 68.642, -168.392
433.362, 68.675, -168.990
439.665, 68.855, -169.875
446.060, 68.974, -170.875
452.548, 68.964, -171.318
459.131, 69.072, -173.148
465.809, 69.108, -173.441
472.584, 69.151, -174.395
479.458, 69.196, -175.324
486.432, 69.227, -176.170
493.507, 69.257, -177.117
500.686, 69.280, -178.067
507.968, 69.288, -179.078
515.357, 69.273, 179.870
522.853, 69.244, 178.791
530.458, 69.197, 177.802
538.174, 69.135, 176.691
546.002, 69.040, 175.814
553.943, 68.940, 174.903
562.001, 68.810, 174.145
570.175, 68.666, 173.624
578.469, 68.520, 173.183
586.883, 68.381, 172.739
595.419, 68.238, 172.535
604.080, 68.067, 172.440
612.866, 67.878, 172.703
621.780, 67.739, 173.426
630.824, 67.655, 174.221
640.000, 67.633, 175.288
649.309, 67.680, 176.010
658.753, 67.782, 176.178
668.335, 67.872, 176.234
678.056, 67.967, 176.117
687.919, 68.010, 175.651
697.925, 68.064, 175.103
708.076, 68.085, 174.333
718.376, 68.090, 173.674
728.825, 68.037, 172.944
739.426, 68.000, 172.330
750.181, 67.945, 171.747
761.093, 67.867, 171.197
772.163, 67.796, 170.740
783.394, 67.700, 170.388
794.789, 67.636, 170.176
806.349, 67.550, 169.833
818.078, 67.466, 169.574
829.977, 67.405, 169.319
842.050, 67.347, 168.937
854.297, 67.270, 168.698
866.724, 67.179, 168.308
879.330, 67.094, 167.972
892.120, 66.999, 167.579
905.097, 66.897, 167.287
918.262, 66.782, 167.015
931.618, 66.669, 166.757
945.169, 66.554, 166.513
958.917, 66.422, 166.306
972.864, 66.286, 166.090
987.015, 66.146, 165.950
1001.371, 65.990, 165.860
1015.937, 65.835, 165.780
1030.714, 65.669, 165.822
1045.706, 65.510, 165.919
1060.916, 65.335, 166.095
1076.347, 65.166, 166.264
1092.003, 64.996, 166.546
1107.887, 64.824, 166.888
1124.001, 64.644, 167.309
1140.350, 64.467, 167.789
1156.937, 64.289, 168.315
1173.765, 64.108, 168.917
1190.838, 63.928, 169.595
1208.159, 63.744, 170.336
1225.732, 63.565, 171.201
1243.561, 63.383, 172.184
1261.649, 63.222, 173.207
1280.000, 63.046, 174.325
1298.618, 62.888, 175.504
1317.507, 62.731, 176.806
1336.670, 62.582, 178.138
1356.113, 62.433, 179.591
1375.838, 62.299, -178.892
1395.850, 62.174, -177.197
1416.153, 62.053, -175.452
1436.751, 61.944, -173.791
1457.649, 61.857, -171.749
1478.851, 61.793, -169.694
1500.362, 61.723, -167.616
1522.185, 61.687, -165.348
1544.326, 61.671, -163.054
1566.789, 61.675, -160.723
1589.578, 61.745, -157.924
1612.699, 61.880, -155.554
1636.156, 62.030, -153.210
1659.955, 62.211, -151.094
1684.099, 62.408, -149.226
1708.595, 62.621, -147.443
1733.447, 62.815, -145.770
1758.661, 63.047, -144.091
1784.241, 63.293, -142.457
1810.193, 63.570, -141.072
1836.523, 63.849, -139.835
1863.236, 64.142, -138.909
1890.338, 64.431, -138.055
1917.833, 64.723, -137.415
1945.729, 65.005, -136.907
1974.030, 65.286, -136.618
2002.743, 65.563, -136.368
2031.873, 65.826, -136.352
2061.428, 66.072, -136.432
2091.412, 66.305, -136.644
2121.832, 66.525, -136.911
2152.695, 66.722, -137.318
2184.007, 66.903, -137.759
2215.774, 67.060, -138.242
2248.003, 67.195, -138.773
2280.701, 67.318, -139.237
2313.874, 67.407, -139.731
2347.530, 67.483, -140.142
2381.676, 67.550, -140.499
2416.318, 67.604, -140.849
2451.464, 67.634, -141.084
2487.122, 67.650, -141.177
2523.298, 67.663, -141.251
2560.000, 67.673, -141.050
2597.236, 67.665, -140.855
2635.014, 67.674, -140.484
2673.341, 67.672, -139.870
2712.226, 67.684, -139.270
2751.676, 67.726, -138.403
2791.700, 67.739, -137.570
2832.306, 67.809, -136.354
2873.503, 67.890, -135.232
2915.299, 68.012, -134.001
2957.703, 68.162, -132.698
3000.724, 68.333, -131.514
3044.370, 68.570, -130.385
3088.652, 68.781, -129.412
3133.577, 69.033, -128.427
3179.156, 69.293, -127.619
3225.398, 69.594, -126.891
3272.312, 69.868, -126.269
3319.909, 70.186, -125.718
3368.198, 70.537, -125.291
3417.190, 70.880, -125.101
3466.894, 71.243, -125.037
3517.321, 71.606, -125.079
3568.482, 72.031, -125.457
3620.387, 72.411, -125.970
3673.046, 72.839, -126.972
3726.472, 73.245, -128.261
3780.675, 73.603, -129.750
3835.666, 73.962, -131.701
3891.457, 74.247, -133.650
3948.060, 74.499, -135.730
4005.486, 74.732, -137.685
4063.747, 74.971, -139.698
4122.855, 75.212, -141.864
4182.824, 75.440, -144.314
4243.664, 75.630, -147.146
4305.390, 75.773, -150.160
4368.013, 75.842, -153.402
4431.547, 75.836, -156.633
4496.005, 75.742, -159.765
4561.401, 75.579, -162.626
4627.749, 75.351, -165.048
4695.061, 75.083, -166.994
4763.352, 74.800, -168.366
4832.637, 74.519, -169.173
4902.929, 74.261, -169.458
4974.244, 74.051, -169.230
5046.596, 73.910, -168.557
5120.000, 73.856, -167.538
5194.472, 73.929, -166.342
5270.027, 74.142, -165.421
5346.682, 74.450, -165.042
5424.451, 74.841, -165.283
5503.352, 75.283, -166.388
5583.399, 75.741, -168.415
5664.612, 76.180, -171.428
5747.006, 76.563, -175.300
5830.598, 76.865, 179.830
5915.406, 77.030, 174.101
6001.447, 77.005, 167.656
6088.740, 76.734, 160.948
6177.303, 76.212, 154.655
6267.154, 75.484, 149.362
6358.312, 74.630, 145.347
6450.796, 73.731, 142.626
6544.625, 72.838, 141.027
6639.818, 71.986, 140.250
6736.397, 71.163, 140.112
6834.380, 70.360, 140.527
6933.789, 69.530, 141.493
7034.643, 68.536, 145.270
7136.964, 68.725, 150.064
7240.773, 68.520, 149.775
7346.093, 68.181, 150.298
7452.944, 67.835, 150.929
7561.350, 67.471, 151.511
7671.332, 67.054, 152.197
7782.915, 66.592, 153.263
7896.120, 66.087, 154.914
8010.971, 65.590, 157.437
8127.493, 65.150, 160.955
8245.711, 64.834, 165.564
8365.647, 64.763, 171.043
8487.328, 65.046, 176.643
8610.779, 65.697, -179.177
8736.026, 66.789, -177.833
8863.095, 67.302, 178.498
8992.011, 67.584, 175.053
9122.803, 67.540, 171.416
9255.497, 67.245, 168.887
9390.121, 66.851, 168.119
9526.704, 66.544, 169.142
9665.273, 66.526, 171.281
9805.857, 66.904, 172.735
9948.487, 67.490, 171.495
10093.191, 67.930, 167.666
10240.000, 68.121, 162.434
10388.944, 68.054, 157.300
10540.055, 67.898, 152.028
10693.363, 67.538, 145.782
10848.902, 66.533, 140.352
11006.703, 65.428, 143.675
11166.799, 66.180, 149.503
11329.224, 67.644, 142.340
11494.012, 68.103, 129.527
11661.195, 67.954, 116.198
11830.812, 67.532, 101.942
12002.895, 66.753, 85.570
12177.480, 65.380, 67.810
12354.606, 63.604, 50.253
12534.309, 61.538, 33.414
12716.624, 59.631, 16.923
12901.592, 57.983, -0.695
13089.250, 56.561, -17.310
13279.637, 55.402, -28.698
13472.794, 55.764, -31.107
13668.760, 57.961, -35.775
13867.577, 60.761, -48.342
14069.285, 63.177, -67.706
14273.928, 64.418, -92.051
14481.547, 64.339, -114.243
14692.186, 63.640, -133.759
14905.889, 62.310, -150.989
15122.700, 60.131, -165.612
15342.664, 57.126, -177.028
15565.829, 52.542, 176.606
15792.239, 42.780, -149.600
16021.942, 51.554, -75.551
16254.986, 57.702, -89.859
16491.422, 60.245, -108.127
16731.295, 61.804, -125.188
16974.656, 62.915, -146.636
17221.559, 62.865, -173.900
17472.053, 60.850, 155.458
17726.189, 56.507, 133.502
17984.021, 51.462, 123.437
18245.605, 46.461, 124.682
18510.994, 41.750, 128.350
18780.242, 35.100, 132.054
19053.408, 16.501, -77.138
19330.547, 37.869, -62.602
19611.715, 44.144, -75.822
19896.975, 47.937, -95.958
