* Measurement data measured by REW V5.19
* Source: ASIO MOTU M Series, In 1
* Format: 1M Log Swept Sine, 1 sweep at -3.0 dBFS  With no timing reference
* Dated: 10 Nov, 2020 3:30:22 PM
* REW Settings:
*  C-weighting compensation: Off
*  Target level: 75.0 dB
* Note: ; 
* Measurement: Nov 10 15:30:22
* Smoothing: None
* Frequency Step: 1/48 octave
* Start Frequency: 10.1 Hz
*
* Freq(Hz), SPL(dB), Phase(degrees)
10.145, 66.047, -93.806
10.293, 66.138, -94.861
10.443, 66.231, -96.072
10.595, 66.319, -97.249
10.749, 66.399, -98.482
10.905, 66.464, -99.772
11.064, 66.513, -101.091
11.225, 66.539, -102.380
11.388, 66.545, -103.630
11.554, 66.534, -104.747
11.722, 66.506, -105.729
11.892, 66.478, -106.513
12.065, 66.451, -107.109
12.241, 66.446, -107.544
12.419, 66.463, -107.855
12.599, 66.514, -108.162
12.782, 66.593, -108.517
12.968, 66.696, -109.045
13.157, 66.805, -109.755
13.348, 66.910, -110.699
13.543, 66.993, -111.782
13.740, 67.046, -112.983
13.939, 67.064, -114.129
14.142, 67.055, -115.165
14.348, 67.028, -115.961
14.557, 67.011, -116.516
14.768, 67.016, -116.834
14.983, 67.069, -117.071
15.201, 67.167, -117.384
15.422, 67.308, -117.921
15.646, 67.461, -118.833
15.874, 67.602, -120.087
16.105, 67.707, -121.655
16.339, 67.756, -123.330
16.577, 67.751, -124.947
16.818, 67.701, -126.357
17.063, 67.631, -127.420
17.311, 67.576, -128.182
17.563, 67.549, -128.754
17.818, 67.563, -129.302
18.077, 67.600, -130.030
18.340, 67.628, -130.961
18.607, 67.627, -131.998
18.877, 67.583, -132.970
19.152, 67.507, -133.649
19.431, 67.436, -133.899
19.713, 67.416, -133.823
20.000, 67.468, -133.700
20.291, 67.583, -133.852
20.586, 67.720, -134.510
20.885, 67.823, -135.668
21.189, 67.846, -137.070
21.497, 67.782, -138.326
21.810, 67.661, -139.091
22.127, 67.542, -139.227
22.449, 67.484, -138.888
22.776, 67.515, -138.451
23.107, 67.614, -138.281
23.443, 67.736, -138.526
23.784, 67.838, -139.082
24.130, 67.908, -139.727
24.481, 67.959, -140.287
24.837, 68.016, -140.741
25.198, 68.094, -141.199
25.565, 68.184, -141.788
25.937, 68.270, -142.547
26.314, 68.335, -143.413
26.697, 68.374, -144.276
27.085, 68.396, -145.052
27.479, 68.411, -145.720
27.879, 68.427, -146.307
28.284, 68.446, -146.857
28.696, 68.468, -147.402
29.113, 68.487, -147.954
29.537, 68.503, -148.507
29.966, 68.518, -149.069
30.402, 68.532, -149.673
30.844, 68.537, -150.372
31.293, 68.519, -151.151
31.748, 68.465, -151.883
32.210, 68.387, -152.390
32.678, 68.321, -152.613
33.154, 68.296, -152.722
33.636, 68.305, -152.996
34.125, 68.307, -153.520
34.621, 68.271, -154.104
35.125, 68.208, -154.477
35.636, 68.150, -154.561
36.154, 68.123, -154.476
36.680, 68.126, -154.362
37.214, 68.146, -154.272
37.755, 68.181, -154.201
38.304, 68.231, -154.169
38.861, 68.292, -154.234
39.427, 68.355, -154.443
40.000, 68.402, -154.753
40.582, 68.437, -155.039
41.172, 68.481, -155.308
41.771, 68.531, -155.715
42.379, 68.558, -156.227
42.995, 68.567, -156.533
43.620, 68.623, -156.668
44.255, 68.723, -157.133
44.898, 68.779, -157.938
45.552, 68.782, -158.430
46.214, 68.839, -158.529
46.886, 68.964, -159.012
47.568, 69.035, -160.049
48.260, 69.013, -160.919
48.962, 68.988, -161.341
49.674, 69.005, -161.798
50.397, 69.010, -162.605
51.130, 68.954, -163.561
51.874, 68.846, -164.350
52.628, 68.720, -164.848
53.394, 68.607, -165.051
54.170, 68.546, -165.151
54.958, 68.502, -165.539
55.758, 68.396, -165.901
56.569, 68.293, -165.666
57.391, 68.250, -165.401
58.226, 68.168, -165.143
59.073, 68.108, -164.266
59.932, 68.140, -163.585
60.804, 68.130, -163.229
61.688, 68.119, -162.549
62.586, 68.143, -161.989
63.496, 68.154, -161.280
64.420, 68.249, -160.363
65.357, 68.390, -159.877
66.307, 68.528, -159.366
67.272, 68.740, -158.986
68.250, 68.953, -159.260
69.243, 69.098, -159.710
70.250, 69.228, -160.034
71.272, 69.373, -160.498
72.309, 69.502, -161.180
73.360, 69.609, -161.940
74.427, 69.711, -162.575
75.510, 69.848, -163.382
76.608, 69.918, -164.442
77.723, 69.971, -164.974
78.853, 70.076, -165.702
80.000, 70.130, -166.683
81.164, 70.153, -167.475
82.344, 70.186, -168.261
83.542, 70.203, -169.035
84.757, 70.218, -169.853
85.990, 70.196, -170.375
87.241, 70.224, -170.838
88.510, 70.226, -171.206
89.797, 70.286, -171.779
91.103, 70.288, -172.289
92.428, 70.360, -172.952
93.773, 70.382, -173.666
95.137, 70.424, -174.380
96.520, 70.468, -175.091
97.924, 70.471, -175.803
99.349, 70.511, -176.655
100.794, 70.498, -177.348
102.260, 70.510, -178.489
103.747, 70.502, -179.134
105.256, 70.501, 179.838
106.787, 70.503, 179.195
108.340, 70.482, 178.234
109.916, 70.459, 177.683
111.515, 70.423, 176.662
113.137, 70.380, 175.798
114.783, 70.320, 174.919
116.452, 70.307, 174.183
118.146, 70.235, 173.399
119.865, 70.240, 172.618
121.608, 70.151, 171.642
123.377, 70.093, 170.898
125.171, 70.027, 169.846
126.992, 69.945, 168.849
128.839, 69.859, 168.181
130.713, 69.751, 167.284
132.615, 69.636, 166.461
134.543, 69.468, 165.754
136.500, 69.344, 164.799
138.486, 69.203, 164.340
140.500, 69.046, 163.791
142.544, 68.857, 163.137
144.617, 68.667, 162.583
146.721, 68.483, 162.226
148.855, 68.258, 162.169
151.020, 68.052, 162.280
153.217, 67.816, 162.335
155.445, 67.618, 162.800
157.706, 67.470, 163.531
160.000, 67.327, 164.391
162.327, 67.211, 165.303
164.688, 67.100, 165.974
167.084, 67.089, 166.638
169.514, 67.054, 167.280
171.980, 67.068, 167.734
174.481, 66.961, 168.311
177.019, 67.034, 167.763
179.594, 66.968, 168.382
182.206, 66.922, 168.521
184.856, 66.858, 168.690
187.545, 66.786, 168.946
190.273, 66.677, 169.614
193.041, 66.625, 170.277
195.849, 66.580, 170.972
198.697, 66.598, 171.845
201.587, 66.679, 172.535
204.520, 66.737, 173.043
207.494, 66.833, 173.279
210.512, 66.940, 173.237
213.574, 67.015, 172.826
216.681, 67.085, 172.361
219.833, 67.143, 172.004
223.030, 67.113, 171.300
226.274, 67.081, 170.436
229.565, 66.994, 169.796
232.905, 66.887, 168.872
236.292, 66.765, 168.731
239.729, 66.593, 168.390
243.216, 66.437, 168.224
246.754, 66.274, 168.349
250.343, 66.125, 168.602
253.984, 65.950, 168.976
257.678, 65.785, 169.512
261.426, 65.621, 170.236
265.229, 65.495, 171.403
269.087, 65.382, 172.652
273.001, 65.316, 174.029
276.972, 65.304, 175.361
281.000, 65.321, 176.481
285.088, 65.365, 177.599
289.234, 65.424, 178.508
293.441, 65.476, 178.995
297.710, 65.533, 179.680
302.040, 65.572, -179.687
306.433, 65.611, -179.247
310.890, 65.633, -178.692
315.412, 65.643, -178.157
320.000, 65.677, -177.463
324.655, 65.679, -176.763
329.377, 65.719, -175.930
334.168, 65.780, -174.979
339.028, 65.840, -174.116
343.959, 65.945, -173.169
348.962, 66.060, -172.390
354.038, 66.206, -171.590
359.188, 66.353, -170.966
364.412, 66.519, -170.425
369.713, 66.696, -170.016
375.090, 66.900, -169.814
380.546, 67.090, -169.826
386.081, 67.275, -169.942
391.697, 67.455, -170.206
397.395, 67.624, -170.563
403.175, 67.782, -171.075
409.039, 67.923, -171.598
414.989, 68.049, -172.217
421.025, 68.175, -172.864
427.149, 68.291, -173.500
433.362, 68.419, -174.292
439.665, 68.507, -175.126
446.060, 68.596, -176.171
452.548, 68.658, -177.040
459.131, 68.713, -178.024
465.809, 68.761, -179.023
472.584, 68.772, 179.953
479.458, 68.795, 178.983
486.432, 68.787, 178.058
493.507, 68.781, 177.051
500.686, 68.758, 176.115
507.968, 68.736, 175.088
515.357, 68.676, 174.225
522.853, 68.620, 173.326
530.458, 68.536, 172.434
538.174, 68.439, 171.609
546.002, 68.338, 170.953
553.943, 68.216, 170.494
562.001, 68.119, 170.120
570.175, 68.041, 169.680
578.469, 67.947, 169.066
586.883, 67.815, 168.480
595.419, 67.646, 168.062
604.080, 67.479, 167.985
612.866, 67.293, 168.109
621.780, 67.116, 168.560
630.824, 66.975, 169.381
640.000, 66.911, 170.508
649.309, 66.930, 171.452
658.753, 67.006, 172.030
668.335, 67.095, 172.372
678.056, 67.187, 172.299
687.919, 67.264, 171.952
697.925, 67.309, 171.438
708.076, 67.332, 170.832
718.376, 67.332, 170.190
728.825, 67.303, 169.540
739.426, 67.260, 168.928
750.181, 67.201, 168.363
761.093, 67.128, 167.860
772.163, 67.049, 167.405
783.394, 66.961, 167.016
794.789, 66.867, 166.717
806.349, 66.773, 166.470
818.078, 66.685, 166.316
829.977, 66.603, 166.149
842.050, 66.527, 166.007
854.297, 66.451, 165.794
866.724, 66.365, 165.613
879.330, 66.284, 165.401
892.120, 66.189, 165.130
905.097, 66.096, 164.927
918.262, 65.991, 164.718
931.618, 65.882, 164.552
945.169, 65.764, 164.381
958.917, 65.647, 164.263
972.864, 65.522, 164.143
987.015, 65.388, 164.048
1001.371, 65.248, 164.026
1015.937, 65.105, 164.011
1030.714, 64.951, 164.100
1045.706, 64.799, 164.195
1060.916, 64.640, 164.407
1076.347, 64.483, 164.638
1092.003, 64.323, 164.950
1107.887, 64.155, 165.362
1124.001, 63.991, 165.708
1140.350, 63.824, 166.193
1156.937, 63.656, 166.776
1173.765, 63.487, 167.378
1190.838, 63.321, 167.991
1208.159, 63.159, 168.800
1225.732, 62.990, 169.612
1243.561, 62.826, 170.547
1261.649, 62.650, 171.518
1280.000, 62.525, 172.674
1298.618, 62.365, 173.752
1317.507, 62.215, 174.922
1336.670, 62.078, 176.219
1356.113, 61.937, 177.577
1375.838, 61.807, 179.030
1395.850, 61.677, -179.377
1416.153, 61.568, -177.741
1436.751, 61.470, -175.982
1457.649, 61.372, -174.138
1478.851, 61.300, -172.229
1500.362, 61.228, -170.084
1522.185, 61.204, -167.982
1544.326, 61.181, -165.624
1566.789, 61.195, -163.290
1589.578, 61.264, -160.647
1612.699, 61.395, -158.219
1636.156, 61.556, -156.104
1659.955, 61.736, -154.044
1684.099, 61.928, -152.298
1708.595, 62.122, -150.583
1733.447, 62.323, -148.887
1758.661, 62.553, -147.319
1784.241, 62.793, -145.730
1810.193, 63.063, -144.441
1836.523, 63.337, -143.266
1863.236, 63.619, -142.387
1890.338, 63.901, -141.589
1917.833, 64.179, -140.947
1945.729, 64.459, -140.518
1974.030, 64.729, -140.207
2002.743, 64.992, -140.051
2031.873, 65.243, -140.036
2061.428, 65.483, -140.121
2091.412, 65.706, -140.256
2121.832, 65.907, -140.588
2152.695, 66.096, -140.862
2184.007, 66.267, -141.267
2215.774, 66.423, -141.682
2248.003, 66.558, -142.095
2280.701, 66.671, -142.579
2313.874, 66.771, -142.945
2347.530, 66.841, -143.378
2381.676, 66.912, -143.587
2416.318, 66.952, -143.861
2451.464, 66.998, -143.947
2487.122, 67.039, -143.894
2523.298, 67.038, -143.990
2560.000, 67.073, -143.643
2597.236, 67.081, -143.346
2635.014, 67.095, -142.893
2673.341, 67.125, -142.245
2712.226, 67.158, -141.500
2751.676, 67.209, -140.599
2791.700, 67.271, -139.583
2832.306, 67.358, -138.441
2873.503, 67.490, -137.187
2915.299, 67.622, -135.966
2957.703, 67.819, -134.656
3000.724, 68.033, -133.439
3044.370, 68.285, -132.342
3088.652, 68.562, -131.337
3133.577, 68.832, -130.451
3179.156, 69.162, -129.620
3225.398, 69.474, -129.001
3272.312, 69.817, -128.429
3319.909, 70.188, -127.939
3368.198, 70.563, -127.573
3417.190, 70.978, -127.527
3466.894, 71.394, -127.595
3517.321, 71.839, -127.851
3568.482, 72.286, -128.348
3620.387, 72.745, -129.115
3673.046, 73.224, -130.275
3726.472, 73.690, -131.758
3780.675, 74.117, -133.496
3835.666, 74.549, -135.649
3891.457, 74.917, -137.806
3948.060, 75.265, -140.219
4005.486, 75.605, -142.580
4063.747, 75.956, -144.965
4122.855, 76.304, -147.837
4182.824, 76.638, -150.944
4243.664, 76.936, -154.534
4305.390, 77.189, -158.379
4368.013, 77.362, -162.507
4431.547, 77.452, -166.768
4496.005, 77.471, -170.932
4561.401, 77.420, -174.919
4627.749, 77.310, -178.628
4695.061, 77.174, 178.023
4763.352, 77.023, 175.025
4832.637, 76.887, 172.322
4902.929, 76.780, 169.840
4974.244, 76.713, 167.420
5046.596, 76.694, 164.939
5120.000, 76.727, 162.194
5194.472, 76.813, 159.033
5270.027, 76.936, 154.950
5346.682, 77.007, 149.762
5424.451, 76.968, 143.609
5503.352, 76.748, 136.562
5583.399, 76.279, 129.054
5664.612, 75.530, 121.754
5747.006, 74.533, 115.332
5830.598, 73.347, 110.090
5915.406, 72.042, 106.325
6001.447, 70.673, 103.914
6088.740, 69.273, 102.820
6177.303, 67.862, 102.909
6267.154, 66.440, 104.302
6358.312, 65.042, 107.062
6450.796, 63.688, 111.335
6544.625, 62.446, 117.221
6639.818, 61.390, 124.616
6736.397, 60.567, 133.352
6834.380, 60.078, 142.982
6933.789, 59.935, 152.735
7034.643, 60.079, 163.132
7136.964, 61.205, 171.263
7240.773, 62.056, 174.406
7346.093, 62.837, 176.258
7452.944, 63.557, 176.528
7561.350, 64.131, 175.283
7671.332, 64.510, 172.950
7782.915, 64.634, 170.006
7896.120, 64.494, 167.185
8010.971, 64.087, 165.204
8127.493, 63.510, 164.936
8245.711, 62.900, 166.865
8365.647, 62.413, 171.263
8487.328, 62.352, 177.399
8610.779, 62.845, -176.905
8736.026, 63.836, -174.546
8863.095, 64.357, -175.324
8992.011, 64.946, -176.544
9122.803, 65.410, -179.087
9255.497, 65.704, 177.530
9390.121, 65.814, 173.734
9526.704, 65.726, 169.959
9665.273, 65.480, 166.699
9805.857, 65.130, 164.265
9948.487, 64.745, 162.641
10093.191, 64.377, 161.933
10240.000, 64.070, 161.511
10388.944, 63.773, 161.854
10540.055, 63.580, 163.324
10693.363, 63.646, 165.863
10848.902, 64.230, 169.490
11006.703, 65.711, 169.331
11166.799, 67.214, 162.615
11329.224, 68.255, 151.377
11494.012, 69.063, 138.889
11661.195, 69.766, 123.470
11830.812, 70.183, 104.268
12002.895, 70.045, 82.064
12177.480, 69.188, 59.417
12354.606, 68.157, 39.437
12534.309, 67.200, 20.709
12716.624, 66.460, 3.730
12901.592, 66.056, -11.662
13089.250, 66.016, -25.761
13279.637, 66.187, -39.336
13472.794, 66.447, -51.664
13668.760, 66.868, -62.438
13867.577, 67.479, -73.498
14069.285, 67.985, -84.738
14273.928, 68.503, -96.941
14481.547, 68.585, -109.355
14692.186, 68.635, -120.348
14905.889, 68.602, -131.869
15122.700, 68.348, -143.978
15342.664, 67.889, -156.920
15565.829, 67.272, -171.960
15792.239, 65.483, 164.847
16021.942, 59.155, 150.664
16254.986, 54.124, -176.224
16491.422, 55.389, -140.527
16731.295, 59.401, -131.644
16974.656, 62.040, -142.429
17221.559, 63.075, -158.318
17472.053, 62.776, -176.344
17726.189, 60.814, 171.224
17984.021, 59.196, 170.918
18245.605, 59.114, 167.553
18510.994, 58.159, 153.526
18780.242, 55.368, 146.850
19053.408, 53.403, 149.712
19330.547, 52.069, 152.475
19611.715, 51.346, 155.135
19896.975, 51.096, 152.441
