* Measurement data measured by REW V5.19
* Source: ASIO MOTU M Series, In 1
* Format: 1M Log Swept Sine, 2 sweeps at -10.0 dBFS  With no timing reference
* Dated: 16 Sep, 2020 4:08:09 PM
* REW Settings:
*  C-weighting compensation: Off
*  Target level: 75.0 dB
* Note: ; 
* Measurement: Sep 16 16:08:09
* Smoothing: None
* Frequency Step: 1/48 octave
* Start Frequency: 10.0 Hz
*
* Freq(Hz), SPL(dB), Phase(degrees)
10.145, 65.155, -79.971
10.293, 65.269, -81.202
10.443, 65.373, -82.341
10.595, 65.473, -83.465
10.749, 65.568, -84.558
10.905, 65.658, -85.623
11.064, 65.747, -86.644
11.225, 65.834, -87.620
11.388, 65.924, -88.561
11.554, 66.016, -89.461
11.722, 66.113, -90.343
11.892, 66.216, -91.219
12.065, 66.323, -92.102
12.241, 66.434, -93.019
12.419, 66.547, -93.966
12.599, 66.657, -94.958
12.782, 66.764, -95.987
12.968, 66.862, -97.039
13.157, 66.954, -98.104
13.348, 67.036, -99.150
13.543, 67.112, -100.173
13.740, 67.183, -101.147
13.939, 67.253, -102.081
14.142, 67.324, -102.972
14.348, 67.398, -103.849
14.557, 67.477, -104.720
14.768, 67.556, -105.617
14.983, 67.636, -106.540
15.201, 67.711, -107.496
15.422, 67.778, -108.460
15.646, 67.836, -109.416
15.874, 67.888, -110.321
16.105, 67.934, -111.165
16.339, 67.982, -111.929
16.577, 68.038, -112.638
16.818, 68.104, -113.309
17.063, 68.183, -114.001
17.311, 68.270, -114.748
17.563, 68.361, -115.574
17.818, 68.447, -116.484
18.077, 68.524, -117.445
18.340, 68.589, -118.425
18.607, 68.641, -119.379
18.877, 68.685, -120.268
19.152, 68.729, -121.088
19.431, 68.775, -121.846
19.713, 68.830, -122.569
20.000, 68.893, -123.299
20.291, 68.961, -124.058
20.586, 69.032, -124.859
20.885, 69.100, -125.703
21.189, 69.165, -126.577
21.497, 69.225, -127.464
21.810, 69.280, -128.353
22.127, 69.331, -129.238
22.449, 69.380, -130.118
22.776, 69.425, -130.995
23.107, 69.467, -131.868
23.443, 69.505, -132.727
23.784, 69.539, -133.555
24.130, 69.571, -134.337
24.481, 69.608, -135.071
24.837, 69.652, -135.778
25.198, 69.706, -136.501
25.565, 69.766, -137.281
25.937, 69.826, -138.138
26.314, 69.877, -139.050
26.697, 69.917, -139.967
27.085, 69.949, -140.842
27.479, 69.982, -141.665
27.879, 70.020, -142.471
28.284, 70.062, -143.309
28.696, 70.100, -144.197
29.113, 70.129, -145.103
29.537, 70.149, -145.969
29.966, 70.169, -146.767
30.402, 70.195, -147.530
30.844, 70.230, -148.318
31.293, 70.265, -149.163
31.748, 70.294, -150.043
32.210, 70.317, -150.925
32.678, 70.337, -151.804
33.154, 70.354, -152.696
33.636, 70.362, -153.580
34.125, 70.367, -154.404
34.621, 70.381, -155.176
35.125, 70.410, -156.015
35.636, 70.436, -157.025
36.154, 70.433, -158.129
36.680, 70.404, -159.111
37.214, 70.383, -159.909
37.755, 70.390, -160.737
38.304, 70.399, -161.797
38.861, 70.375, -162.968
39.427, 70.323, -163.990
40.000, 70.285, -164.887
40.582, 70.259, -165.932
41.172, 70.190, -167.136
41.771, 70.061, -168.081
42.379, 69.935, -168.467
42.995, 69.876, -168.623
43.620, 69.855, -168.965
44.255, 69.817, -169.346
44.898, 69.807, -169.435
45.552, 69.894, -169.682
46.214, 70.012, -170.834
46.886, 70.010, -172.640
47.568, 69.890, -174.043
48.260, 69.807, -174.921
48.962, 69.775, -176.201
49.674, 69.665, -177.895
50.397, 69.490, -179.215
51.130, 69.353, 179.561
51.874, 69.165, 177.854
52.628, 68.828, 176.499
53.394, 68.472, 176.256
54.170, 68.207, 176.466
54.958, 67.971, 176.591
55.758, 67.711, 176.883
56.569, 67.469, 177.664
57.391, 67.318, 178.416
58.226, 67.109, 178.604
59.073, 66.788, 179.939
59.932, 66.736, -177.575
60.804, 66.880, -176.641
61.688, 66.956, -176.483
62.586, 67.068, -177.079
63.496, 66.981, -178.823
64.420, 66.694, -179.851
65.357, 66.296, 179.244
66.307, 65.592, -179.960
67.272, 65.068, -175.971
68.250, 64.798, -171.567
69.243, 64.770, -165.635
70.250, 65.259, -160.766
71.272, 65.820, -158.062
72.309, 66.424, -156.410
73.360, 67.000, -156.050
74.427, 67.498, -156.416
75.510, 67.899, -157.318
76.608, 68.207, -158.260
77.723, 68.492, -159.200
78.853, 68.739, -160.437
80.000, 68.943, -161.474
81.164, 69.178, -162.811
82.344, 69.317, -164.206
83.542, 69.481, -165.338
84.757, 69.611, -166.595
85.990, 69.752, -167.807
87.241, 69.856, -169.016
88.510, 69.985, -170.287
89.797, 70.067, -171.422
91.103, 70.164, -172.773
92.428, 70.210, -173.522
93.773, 70.319, -175.001
95.137, 70.304, -176.040
96.520, 70.318, -177.330
97.924, 70.340, -178.130
99.349, 70.385, -179.733
100.794, 70.328, 179.185
102.260, 70.377, 178.304
103.747, 70.371, 177.064
105.256, 70.376, 176.028
106.787, 70.368, 174.788
108.340, 70.321, 173.459
109.916, 70.263, 172.234
111.515, 70.179, 170.950
113.137, 70.032, 169.908
114.783, 69.922, 169.513
116.452, 69.867, 169.012
118.146, 69.834, 168.724
119.865, 69.854, 167.923
121.608, 69.877, 166.959
123.377, 69.868, 165.577
125.171, 69.779, 164.290
126.992, 69.711, 162.988
128.839, 69.540, 161.666
130.713, 69.356, 160.737
132.615, 69.134, 160.090
134.543, 68.951, 160.489
136.500, 68.893, 160.669
138.486, 68.938, 160.282
140.500, 68.939, 159.014
142.544, 68.804, 158.049
144.617, 68.681, 157.534
146.721, 68.620, 157.101
148.855, 68.556, 155.931
151.020, 68.579, 155.156
153.217, 68.431, 153.993
155.445, 68.313, 152.821
157.706, 68.202, 151.602
160.000, 68.025, 150.561
162.327, 67.905, 149.228
164.688, 67.690, 148.324
167.084, 67.481, 147.488
169.514, 67.205, 146.381
171.980, 66.966, 145.640
174.481, 66.726, 144.759
177.019, 66.436, 144.075
179.594, 66.126, 143.182
182.206, 65.775, 142.266
184.856, 65.334, 142.154
187.545, 64.951, 142.827
190.273, 64.679, 143.733
193.041, 64.457, 144.078
195.849, 64.093, 144.238
198.697, 63.799, 145.361
201.587, 63.581, 145.912
204.520, 63.298, 146.626
207.494, 62.969, 147.034
210.512, 62.630, 147.748
213.574, 62.399, 149.258
216.681, 62.064, 150.184
219.833, 61.726, 151.893
223.030, 61.388, 153.783
226.274, 61.204, 155.930
229.565, 60.860, 158.263
232.905, 60.701, 160.620
236.292, 60.540, 163.402
239.729, 60.378, 165.474
243.216, 60.350, 168.497
246.754, 60.366, 171.151
250.343, 60.329, 173.961
253.984, 60.380, 176.265
257.678, 60.455, 178.723
261.426, 60.597, -179.108
265.229, 60.713, -176.937
269.087, 60.895, -174.814
273.001, 61.078, -173.029
276.972, 61.256, -171.458
281.000, 61.450, -170.257
285.088, 61.680, -169.041
289.234, 61.894, -167.945
293.441, 62.114, -167.393
297.710, 62.293, -166.604
302.040, 62.484, -166.092
306.433, 62.672, -165.541
310.890, 62.827, -165.158
315.412, 63.003, -164.847
320.000, 63.156, -164.416
324.655, 63.296, -164.215
329.377, 63.448, -164.194
334.168, 63.582, -163.963
339.028, 63.712, -163.901
343.959, 63.831, -163.804
348.962, 63.959, -163.745
354.038, 64.064, -163.657
359.188, 64.175, -163.644
364.412, 64.280, -163.672
369.713, 64.378, -163.694
375.090, 64.459, -163.662
380.546, 64.577, -163.709
386.081, 64.675, -163.677
391.697, 64.772, -163.886
397.395, 64.869, -164.116
403.175, 64.941, -164.331
409.039, 65.019, -164.529
414.989, 65.081, -164.793
421.025, 65.130, -165.084
427.149, 65.173, -165.223
433.362, 65.225, -165.416
439.665, 65.268, -165.582
446.060, 65.306, -165.703
452.548, 65.348, -165.889
459.131, 65.384, -166.034
465.809, 65.417, -166.191
472.584, 65.450, -166.324
479.458, 65.473, -166.451
486.432, 65.507, -166.584
493.507, 65.528, -166.721
500.686, 65.561, -166.862
507.968, 65.590, -166.947
515.357, 65.609, -167.001
522.853, 65.620, -167.138
530.458, 65.636, -167.260
538.174, 65.654, -167.330
546.002, 65.659, -167.417
553.943, 65.678, -167.499
562.001, 65.691, -167.554
570.175, 65.700, -167.630
578.469, 65.712, -167.691
586.883, 65.721, -167.768
595.419, 65.728, -167.823
604.080, 65.734, -167.862
612.866, 65.740, -167.919
621.780, 65.740, -167.969
630.824, 65.743, -168.017
640.000, 65.742, -168.045
649.309, 65.744, -168.081
658.753, 65.736, -168.122
668.335, 65.728, -168.151
678.056, 65.718, -168.186
687.919, 65.704, -168.215
697.925, 65.674, -168.235
708.076, 65.638, -168.186
718.376, 65.600, -168.026
728.825, 65.571, -167.759
739.426, 65.552, -167.480
750.181, 65.539, -167.232
761.093, 65.529, -167.017
772.163, 65.500, -166.766
783.394, 65.474, -166.437
794.789, 65.443, -165.984
806.349, 65.423, -165.485
818.078, 65.412, -164.869
829.977, 65.425, -164.191
842.050, 65.461, -163.480
854.297, 65.510, -162.814
866.724, 65.567, -162.141
879.330, 65.659, -161.476
892.120, 65.771, -160.955
905.097, 65.911, -160.606
918.262, 66.054, -160.499
931.618, 66.186, -160.700
945.169, 66.281, -161.098
958.917, 66.350, -161.507
972.864, 66.388, -161.908
987.015, 66.405, -162.192
1001.371, 66.419, -162.436
1015.937, 66.423, -162.668
1030.714, 66.426, -162.744
1045.706, 66.434, -162.820
1060.916, 66.427, -162.884
1076.347, 66.436, -162.962
1092.003, 66.428, -163.017
1107.887, 66.425, -163.001
1124.001, 66.407, -163.067
1140.350, 66.396, -163.027
1156.937, 66.366, -162.957
1173.765, 66.336, -162.852
1190.838, 66.296, -162.581
1208.159, 66.262, -162.205
1225.732, 66.250, -161.662
1243.561, 66.256, -161.090
1261.649, 66.292, -160.573
1280.000, 66.331, -160.099
1298.618, 66.386, -159.809
1317.507, 66.441, -159.466
1336.670, 66.495, -159.250
1356.113, 66.548, -159.177
1375.838, 66.590, -159.008
1395.850, 66.627, -158.952
1416.153, 66.658, -158.863
1436.751, 66.682, -158.749
1457.649, 66.707, -158.609
1478.851, 66.729, -158.457
1500.362, 66.753, -158.298
1522.185, 66.774, -158.234
1544.326, 66.793, -158.100
1566.789, 66.807, -157.926
1589.578, 66.818, -157.812
1612.699, 66.830, -157.663
1636.156, 66.829, -157.572
1659.955, 66.801, -157.263
1684.099, 66.845, -156.936
1708.595, 66.851, -156.947
1733.447, 66.806, -156.906
1758.661, 66.728, -156.510
1784.241, 66.688, -155.727
1810.193, 66.682, -154.984
1836.523, 66.683, -154.333
1863.236, 66.692, -153.628
1890.338, 66.684, -152.873
1917.833, 66.679, -151.990
1945.729, 66.681, -151.084
1974.030, 66.690, -150.005
2002.743, 66.711, -148.799
2031.873, 66.760, -147.505
2061.428, 66.803, -146.093
2091.412, 66.840, -144.488
2121.832, 66.898, -142.390
2152.695, 67.045, -139.669
2184.007, 67.361, -136.728
2215.774, 67.857, -134.204
2248.003, 68.492, -132.780
2280.701, 69.136, -132.696
2313.874, 69.735, -133.484
2347.530, 70.255, -135.027
2381.676, 70.675, -137.000
2416.318, 71.016, -139.148
2451.464, 71.287, -141.360
2487.122, 71.498, -143.607
2523.298, 71.656, -145.779
2560.000, 71.771, -147.864
2597.236, 71.853, -149.803
2635.014, 71.918, -151.626
2673.341, 71.968, -153.403
2712.226, 71.995, -155.226
2751.676, 71.986, -157.039
2791.700, 71.942, -158.786
2832.306, 71.853, -160.421
2873.503, 71.726, -161.791
2915.299, 71.574, -162.750
2957.703, 71.416, -163.292
3000.724, 71.307, -163.307
3044.370, 71.277, -163.177
3088.652, 71.315, -163.264
3133.577, 71.378, -163.768
3179.156, 71.421, -164.503
3225.398, 71.440, -165.407
3272.312, 71.417, -166.358
3319.909, 71.355, -167.115
3368.198, 71.294, -167.372
3417.190, 71.314, -167.265
3466.894, 71.444, -167.764
3517.321, 71.572, -168.860
3568.482, 71.650, -170.623
3620.387, 71.647, -172.659
3673.046, 71.572, -174.679
3726.472, 71.446, -176.628
3780.675, 71.283, -178.557
3835.666, 71.076, 179.583
3891.457, 70.843, 177.726
3948.060, 70.564, 175.627
4005.486, 70.115, 173.203
4063.747, 69.501, 171.154
4122.855, 68.694, 170.508
4182.824, 67.833, 171.167
4243.664, 66.879, 173.689
4305.390, 66.039, 179.150
4368.013, 65.619, -173.227
4431.547, 65.740, -165.622
4496.005, 66.238, -159.930
4561.401, 66.848, -156.541
4627.749, 67.414, -154.764
4695.061, 67.910, -153.994
4763.352, 68.316, -153.840
4832.637, 68.654, -154.033
4902.929, 68.927, -154.456
4974.244, 69.143, -154.916
5046.596, 69.328, -155.314
5120.000, 69.505, -155.652
5194.472, 69.700, -156.078
5270.027, 69.899, -156.896
5346.682, 70.052, -158.088
5424.451, 70.137, -159.561
5503.352, 70.118, -161.118
5583.399, 69.988, -162.263
5664.612, 69.819, -162.633
5747.006, 69.681, -162.497
5830.598, 69.567, -162.067
5915.406, 69.464, -161.427
6001.447, 69.349, -160.325
6088.740, 69.305, -158.341
6177.303, 69.424, -156.243
6267.154, 69.646, -154.182
6358.312, 70.026, -152.485
6450.796, 70.500, -152.037
6544.625, 70.853, -152.397
6639.818, 71.153, -151.869
6736.397, 71.708, -151.014
6834.380, 72.417, -152.103
6933.789, 73.039, -154.645
7034.643, 73.568, -157.931
7136.964, 74.022, -161.926
7240.773, 74.377, -166.608
7346.093, 74.612, -171.834
7452.944, 74.715, -177.518
7561.350, 74.635, 176.559
7671.332, 74.370, 171.048
7782.915, 74.001, 166.298
7896.120, 73.604, 162.139
8010.971, 73.188, 158.250
8127.493, 72.723, 154.626
8245.711, 72.262, 151.696
8365.647, 71.934, 148.880
8487.328, 71.639, 145.161
8610.779, 71.295, 140.613
8736.026, 71.189, 133.989
8863.095, 70.167, 124.828
8992.011, 68.869, 116.183
9122.803, 66.945, 107.774
9255.497, 64.241, 101.319
9390.121, 60.489, 100.270
9526.704, 55.652, 113.600
9665.273, 53.391, 155.554
9805.857, 56.305, -178.827
9948.487, 58.722, -173.307
10093.191, 60.077, -174.830
10240.000, 60.372, -177.251
10388.944, 60.299, -176.392
10540.055, 60.393, -174.470
10693.363, 60.530, -173.876
10848.902, 60.242, -174.397
11006.703, 59.464, -169.546
11166.799, 60.023, -159.666
11329.224, 61.412, -158.019
11494.012, 62.312, -162.086
11661.195, 62.749, -170.160
11830.812, 61.736, -178.635
12002.895, 60.218, -179.522
12177.480, 58.742, -174.026
12354.606, 58.384, -161.544
12534.309, 59.652, -155.472
12716.624, 60.284, -159.985
12901.592, 59.335, -162.818
13089.250, 58.662, -153.225
13279.637, 59.617, -147.793
13472.794, 59.853, -145.379
13668.760, 61.315, -137.641
13867.577, 63.498, -145.371
14069.285, 63.782, -157.309
14273.928, 63.601, -165.000
14481.547, 63.337, -169.773
14692.186, 63.528, -177.496
14905.889, 62.917, 173.130
15122.700, 62.330, 164.073
15342.664, 60.817, 154.559
15565.829, 59.241, 147.383
15792.239, 57.138, 142.239
16021.942, 54.902, 139.177
16254.986, 51.811, 136.972
16491.422, 47.200, 149.065
16731.295, 45.771, -169.381
16974.656, 48.972, -148.583
17221.559, 54.063, -153.163
17472.053, 54.049, 176.326
17726.189, 49.810, 164.946
17984.021, 47.536, -172.992
18245.605, 49.189, -165.451
18510.994, 50.122, -165.869
18780.242, 51.246, -178.616
19053.408, 50.727, 165.634
19330.547, 48.641, 143.684
19611.715, 44.365, 132.592
19896.975, 39.621, 132.865
