* Measurement data measured by REW V5.19
* Source: ASIO MOTU M Series, In 1
* Format: 1M Log Swept Sine, 1 sweep at -10.0 dBFS  With no timing reference
* Dated: 30 Apr, 2021 9:19:42 PM
* REW Settings:
*  C-weighting compensation: Off
*  Target level: 75.0 dB
* Note: ; 
* Measurement: Apr 30 21:19:42
* Smoothing: 1/48 octave
* Frequency Step: 1/48 octave
* Start Frequency: 10.1 Hz
*
* Freq(Hz), SPL(dB), Phase(degrees)
10.145, 61.971, 94.031
10.293, 62.031, 93.404
10.443, 62.093, 92.570
10.595, 62.192, 91.494
10.749, 62.300, 90.376
10.905, 62.391, 89.536
11.064, 62.479, 88.782
11.225, 62.578, 87.876
11.388, 62.684, 86.886
11.554, 62.785, 85.881
11.722, 62.882, 84.850
11.892, 62.971, 83.798
12.065, 63.052, 82.725
12.241, 63.124, 81.642
12.419, 63.188, 80.564
12.599, 63.242, 79.556
12.782, 63.291, 78.604
12.968, 63.338, 77.708
13.157, 63.387, 76.871
13.348, 63.441, 76.102
13.543, 63.501, 75.357
13.740, 63.571, 74.625
13.939, 63.647, 73.869
14.142, 63.728, 73.083
14.348, 63.811, 72.248
14.557, 63.891, 71.371
14.768, 63.966, 70.456
14.983, 64.034, 69.534
15.201, 64.095, 68.619
15.422, 64.150, 67.728
15.646, 64.203, 66.877
15.874, 64.255, 66.062
16.105, 64.308, 65.277
16.339, 64.365, 64.503
16.577, 64.425, 63.727
16.818, 64.485, 62.938
17.063, 64.544, 62.132
17.311, 64.600, 61.316
17.563, 64.652, 60.502
17.818, 64.700, 59.699
18.077, 64.745, 58.920
18.340, 64.789, 58.164
18.607, 64.832, 57.428
18.877, 64.875, 56.706
19.152, 64.919, 55.991
19.431, 64.962, 55.282
19.713, 65.004, 54.579
20.000, 65.045, 53.885
20.291, 65.085, 53.198
20.586, 65.125, 52.516
20.885, 65.165, 51.834
21.189, 65.203, 51.151
21.497, 65.239, 50.470
21.810, 65.272, 49.799
22.127, 65.305, 49.142
22.449, 65.338, 48.497
22.776, 65.372, 47.852
23.107, 65.406, 47.196
23.443, 65.436, 46.528
23.784, 65.463, 45.865
24.130, 65.484, 45.234
24.481, 65.506, 44.654
24.837, 65.534, 44.116
25.198, 65.571, 43.581
25.565, 65.615, 43.000
25.937, 65.659, 42.348
26.314, 65.695, 41.650
26.697, 65.719, 40.962
27.085, 65.737, 40.333
27.479, 65.758, 39.767
27.879, 65.787, 39.215
28.284, 65.819, 38.628
28.696, 65.847, 37.998
29.113, 65.865, 37.371
29.537, 65.876, 36.808
29.966, 65.889, 36.320
30.402, 65.911, 35.864
30.844, 65.941, 35.383
31.293, 65.970, 34.854
31.748, 65.995, 34.301
32.210, 66.015, 33.753
32.678, 66.034, 33.217
33.154, 66.051, 32.678
33.636, 66.065, 32.135
34.125, 66.076, 31.602
34.621, 66.085, 31.092
35.125, 66.095, 30.599
35.636, 66.107, 30.107
36.154, 66.119, 29.601
36.680, 66.129, 29.088
37.214, 66.136, 28.590
37.755, 66.144, 28.118
38.304, 66.155, 27.648
38.861, 66.167, 27.149
39.427, 66.174, 26.635
40.000, 66.175, 26.149
40.582, 66.177, 25.699
41.172, 66.181, 25.249
41.771, 66.182, 24.796
42.379, 66.182, 24.364
42.995, 66.186, 23.931
43.620, 66.187, 23.461
44.255, 66.182, 22.986
44.898, 66.174, 22.531
45.552, 66.164, 22.066
46.214, 66.145, 21.621
46.886, 66.127, 21.260
47.568, 66.121, 20.897
48.260, 66.107, 20.447
48.962, 66.068, 20.085
49.674, 66.033, 19.960
50.397, 66.027, 19.925
51.130, 66.037, 19.853
51.874, 66.056, 19.755
52.628, 66.080, 19.596
53.394, 66.100, 19.422
54.170, 66.131, 19.271
54.958, 66.174, 18.971
55.758, 66.197, 18.541
56.569, 66.208, 18.206
57.391, 66.240, 17.856
58.226, 66.266, 17.335
59.073, 66.272, 16.827
59.932, 66.283, 16.371
60.804, 66.293, 15.816
61.688, 66.283, 15.262
62.586, 66.274, 14.731
63.496, 66.249, 14.091
64.420, 66.193, 13.519
65.357, 66.137, 13.091
66.307, 66.083, 12.630
67.272, 66.013, 12.199
68.250, 65.943, 11.892
69.243, 65.872, 11.627
70.250, 65.797, 11.535
71.272, 65.746, 11.445
72.309, 65.636, 11.276
73.360, 65.500, 11.868
74.427, 65.464, 12.683
75.510, 65.443, 13.292
76.608, 65.445, 13.997
77.723, 65.482, 14.597
78.853, 65.543, 15.061
80.000, 65.616, 15.356
81.164, 65.696, 15.573
82.344, 65.789, 15.662
83.542, 65.875, 15.582
84.757, 65.954, 15.423
85.990, 66.021, 15.151
87.241, 66.073, 14.879
88.510, 66.127, 14.585
89.797, 66.169, 14.245
91.103, 66.201, 13.941
92.428, 66.232, 13.687
93.773, 66.266, 13.405
95.137, 66.295, 13.089
96.520, 66.319, 12.753
97.924, 66.346, 12.500
99.349, 66.382, 12.215
100.794, 66.419, 11.934
102.260, 66.452, 11.592
103.747, 66.474, 11.163
105.256, 66.457, 10.688
106.787, 66.458, 10.436
108.340, 66.478, 9.904
109.916, 66.486, 9.337
111.515, 66.473, 8.789
113.137, 66.442, 8.394
114.783, 66.400, 8.169
116.452, 66.358, 7.976
118.146, 66.313, 7.776
119.865, 66.261, 7.657
121.608, 66.250, 7.746
123.377, 66.256, 7.818
125.171, 66.278, 7.957
126.992, 66.310, 7.951
128.839, 66.325, 7.775
130.713, 66.339, 7.612
132.615, 66.367, 7.322
134.543, 66.382, 7.027
136.500, 66.380, 6.758
138.486, 66.371, 6.528
140.500, 66.368, 6.309
142.544, 66.374, 5.994
144.617, 66.350, 5.721
146.721, 66.340, 5.706
148.855, 66.338, 5.652
151.020, 66.348, 5.576
153.217, 66.353, 5.324
155.445, 66.341, 5.138
157.706, 66.351, 4.979
160.000, 66.367, 4.477
162.327, 66.287, 4.478
164.688, 66.347, 4.583
167.084, 66.333, 4.166
169.514, 66.338, 4.097
171.980, 66.342, 3.875
174.481, 66.327, 3.752
177.019, 66.316, 3.572
179.594, 66.303, 3.108
182.206, 66.272, 2.780
184.856, 66.262, 2.703
187.545, 66.245, 2.710
190.273, 66.201, 2.653
193.041, 66.190, 2.560
195.849, 66.183, 2.435
198.697, 66.185, 2.591
201.587, 66.185, 2.524
204.520, 66.174, 2.381
207.494, 66.173, 2.213
210.512, 66.183, 2.073
213.574, 66.177, 1.886
216.681, 66.162, 1.821
219.833, 66.155, 1.692
223.030, 66.161, 1.509
226.274, 66.131, 1.266
229.565, 66.098, 1.168
232.905, 66.109, 0.947
236.292, 66.112, 0.735
239.729, 66.111, 0.751
243.216, 66.093, 0.526
246.754, 66.051, 0.318
250.343, 66.056, 0.186
253.984, 66.003, -0.103
257.678, 65.998, -0.168
261.426, 65.984, -0.333
265.229, 65.952, -0.365
269.087, 65.927, -0.424
273.001, 65.900, -0.576
276.972, 65.879, -0.749
281.000, 65.856, -0.827
285.088, 65.828, -0.834
289.234, 65.803, -1.021
293.441, 65.772, -1.066
297.710, 65.748, -0.958
302.040, 65.745, -0.730
306.433, 65.716, -0.958
310.890, 65.692, -1.327
315.412, 65.657, -1.329
320.000, 65.622, -1.245
324.655, 65.601, -1.236
329.377, 65.560, -1.386
334.168, 65.543, -1.459
339.028, 65.517, -1.444
343.959, 65.478, -1.486
348.962, 65.457, -1.573
354.038, 65.415, -1.519
359.188, 65.374, -1.565
364.412, 65.347, -1.544
369.713, 65.309, -1.495
375.090, 65.288, -1.499
380.546, 65.262, -1.485
386.081, 65.217, -1.450
391.697, 65.171, -1.441
397.395, 65.139, -1.355
403.175, 65.099, -1.268
409.039, 65.067, -1.193
414.989, 65.035, -1.086
421.025, 65.000, -0.970
427.149, 64.974, -0.896
433.362, 64.944, -0.698
439.665, 64.911, -0.540
446.060, 64.886, -0.398
452.548, 64.851, -0.354
459.131, 64.817, -0.279
465.809, 64.791, -0.136
472.584, 64.776, -0.039
479.458, 64.753, 0.317
486.432, 64.692, 0.419
493.507, 64.663, 0.465
500.686, 64.622, 0.627
507.968, 64.598, 0.669
515.357, 64.557, 0.893
522.853, 64.523, 1.147
530.458, 64.488, 1.327
538.174, 64.446, 1.523
546.002, 64.425, 1.856
553.943, 64.419, 1.957
562.001, 64.366, 2.074
570.175, 64.291, 2.407
578.469, 64.259, 2.935
586.883, 64.263, 3.153
595.419, 64.234, 3.381
604.080, 64.200, 3.814
612.866, 64.191, 4.072
621.780, 64.168, 4.401
630.824, 64.152, 4.726
640.000, 64.141, 4.985
649.309, 64.121, 5.140
658.753, 64.077, 5.411
668.335, 64.048, 5.802
678.056, 64.028, 6.058
687.919, 63.983, 6.513
697.925, 63.979, 6.984
708.076, 63.951, 7.212
718.376, 63.921, 7.691
728.825, 63.898, 8.106
739.426, 63.878, 8.655
750.181, 63.871, 9.035
761.093, 63.858, 9.509
772.163, 63.851, 9.813
783.394, 63.809, 10.187
794.789, 63.784, 10.767
806.349, 63.773, 11.214
818.078, 63.739, 11.853
829.977, 63.730, 12.450
842.050, 63.730, 13.094
854.297, 63.710, 13.741
866.724, 63.688, 14.460
879.330, 63.689, 15.358
892.120, 63.739, 16.068
905.097, 63.780, 16.768
918.262, 63.814, 17.441
931.618, 63.867, 18.186
945.169, 63.916, 18.827
958.917, 64.009, 19.431
972.864, 64.063, 19.871
987.015, 64.116, 20.273
1001.371, 64.145, 20.648
1015.937, 64.191, 21.333
1030.714, 64.261, 21.798
1045.706, 64.354, 22.256
1060.916, 64.413, 22.244
1076.347, 64.411, 22.766
1092.003, 64.478, 23.203
1107.887, 64.506, 23.421
1124.001, 64.536, 23.913
1140.350, 64.580, 24.419
1156.937, 64.625, 24.758
1173.765, 64.660, 25.366
1190.838, 64.724, 26.068
1208.159, 64.821, 26.518
1225.732, 64.884, 26.854
1243.561, 64.943, 27.355
1261.649, 65.019, 27.756
1280.000, 65.083, 28.110
1298.618, 65.140, 28.605
1317.507, 65.227, 29.008
1336.670, 65.294, 29.369
1356.113, 65.379, 29.767
1375.838, 65.450, 30.048
1395.850, 65.521, 30.497
1416.153, 65.600, 30.820
1436.751, 65.671, 31.199
1457.649, 65.742, 31.646
1478.851, 65.866, 32.160
1500.362, 65.958, 32.304
1522.185, 66.057, 32.660
1544.326, 66.156, 32.868
1566.789, 66.248, 33.060
1589.578, 66.322, 33.154
1612.699, 66.389, 33.506
1636.156, 66.479, 33.858
1659.955, 66.570, 34.129
1684.099, 66.675, 34.501
1708.595, 66.788, 34.674
1733.447, 66.888, 34.749
1758.661, 66.956, 35.042
1784.241, 67.071, 35.457
1810.193, 67.214, 35.604
1836.523, 67.335, 35.500
1863.236, 67.419, 35.311
1890.338, 67.464, 35.491
1917.833, 67.560, 35.661
1945.729, 67.630, 35.907
1974.030, 67.743, 36.182
2002.743, 67.824, 36.127
2031.873, 67.892, 36.541
2061.428, 68.004, 36.767
2091.412, 68.063, 37.046
2121.832, 68.196, 37.621
2152.695, 68.282, 37.831
2184.007, 68.383, 38.519
2215.774, 68.529, 39.454
2248.003, 68.778, 40.090
2280.701, 69.002, 40.483
2313.874, 69.277, 40.666
2347.530, 69.526, 40.662
2381.676, 69.841, 40.580
2416.318, 70.146, 39.702
2451.464, 70.377, 38.619
2487.122, 70.555, 37.504
2523.298, 70.721, 36.603
2560.000, 70.879, 35.496
2597.236, 71.009, 34.591
2635.014, 71.140, 33.620
2673.341, 71.279, 32.770
2712.226, 71.429, 31.586
2751.676, 71.530, 30.307
2791.700, 71.604, 29.020
2832.306, 71.647, 27.846
2873.503, 71.671, 26.821
2915.299, 71.700, 25.996
2957.703, 71.759, 25.190
3000.724, 71.790, 24.253
3044.370, 71.810, 23.508
3088.652, 71.846, 23.002
3133.577, 71.935, 22.527
3179.156, 72.057, 21.812
3225.398, 72.196, 20.782
3272.312, 72.326, 19.388
3319.909, 72.415, 17.557
3368.198, 72.427, 15.628
3417.190, 72.390, 13.903
3466.894, 72.340, 12.251
3517.321, 72.266, 10.665
3568.482, 72.169, 9.135
3620.387, 72.059, 7.705
3673.046, 71.935, 6.261
3726.472, 71.797, 4.833
3780.675, 71.617, 3.293
3835.666, 71.375, 1.987
3891.457, 71.099, 1.165
3948.060, 70.854, 0.771
4005.486, 70.645, 0.411
4063.747, 70.448, -0.037
4122.855, 70.251, -0.526
4182.824, 70.060, -1.245
4243.664, 69.817, -2.311
4305.390, 69.463, -3.532
4368.013, 68.925, -4.310
4431.547, 68.271, -3.549
4496.005, 67.654, -1.117
4561.401, 67.232, 2.618
4627.749, 67.031, 6.495
4695.061, 66.967, 10.369
4763.352, 67.043, 14.025
4832.637, 67.258, 17.210
4902.929, 67.545, 19.441
4974.244, 67.832, 21.015
5046.596, 68.114, 21.900
5120.000, 68.292, 22.330
5194.472, 68.421, 23.194
5270.027, 68.589, 24.203
5346.682, 68.804, 25.132
5424.451, 69.040, 25.725
5503.352, 69.283, 26.025
5583.399, 69.509, 25.907
5664.612, 69.678, 25.570
5747.006, 69.794, 25.284
5830.598, 69.895, 25.165
5915.406, 69.982, 25.000
6001.447, 70.011, 24.908
6088.740, 70.010, 25.418
6177.303, 70.065, 26.417
6267.154, 70.193, 27.560
6358.312, 70.364, 28.647
6450.796, 70.576, 29.883
6544.625, 70.879, 31.273
6639.818, 71.301, 32.427
6736.397, 71.823, 33.049
6834.380, 72.419, 32.925
6933.789, 73.050, 31.863
7034.643, 73.677, 29.852
7136.964, 74.265, 26.918
7240.773, 74.782, 23.108
7346.093, 75.188, 18.597
7452.944, 75.484, 13.703
7561.350, 75.688, 8.444
7671.332, 75.768, 2.818
7782.915, 75.728, -2.802
7896.120, 75.630, -8.554
8010.971, 75.412, -15.172
8127.493, 74.887, -22.000
8245.711, 74.115, -27.826
8365.647, 73.162, -32.674
8487.328, 71.987, -36.176
8610.779, 70.599, -36.942
8736.026, 69.337, -33.747
8863.095, 68.693, -29.645
8992.011, 68.079, -26.879
9122.803, 67.630, -22.184
9255.497, 67.661, -17.989
9390.121, 67.889, -16.661
9526.704, 67.909, -17.387
9665.273, 67.689, -18.058
9805.857, 67.441, -17.949
9948.487, 67.261, -18.218
10093.191, 66.972, -19.243
10240.000, 66.511, -20.006
10388.944, 65.950, -20.062
10540.055, 65.283, -19.516
10693.363, 64.405, -17.374
10848.902, 63.467, -10.514
11006.703, 63.583, 1.152
11166.799, 65.173, 7.499
11329.224, 66.487, 2.211
11494.012, 66.296, -6.883
11661.195, 65.138, -9.398
11830.812, 64.176, -5.436
12002.895, 63.857, 0.977
12177.480, 64.191, 7.109
12354.606, 64.970, 10.292
12534.309, 65.739, 9.981
12716.624, 66.338, 7.434
12901.592, 66.650, 2.713
13089.250, 66.367, -1.869
13279.637, 65.897, -2.877
13472.794, 65.767, -2.384
13668.760, 65.658, -2.887
13867.577, 65.684, 0.343
14069.285, 66.891, 1.089
14273.928, 67.799, -6.584
14481.547, 68.081, -16.056
14692.186, 67.963, -27.503
14905.889, 67.031, -39.543
15122.700, 65.519, -47.689
15342.664, 63.994, -55.036
15565.829, 61.830, -61.683
15792.239, 59.070, -63.494
16021.942, 55.780, -59.320
16254.986, 52.040, -38.508
16491.422, 51.642, -3.948
16731.295, 54.949, 17.418
16974.656, 58.325, 19.454
17221.559, 60.593, 7.896
17472.053, 61.071, -9.844
17726.189, 60.025, -23.256
17984.021, 58.555, -30.415
18245.605, 57.102, -35.149
18510.994, 55.459, -39.728
18780.242, 53.015, -41.965
19053.408, 49.836, -28.940
19330.547, 49.688, -8.432
19611.715, 50.594, -2.745
19896.975, 50.670, -0.111
