* Measurement data measured by REW V5.19
* Source: ASIO MOTU M Series, In 1
* Format: 1M Log Swept Sine, 1 sweep at -10.0 dBFS  With no timing reference
* Dated: 30 Apr, 2021 9:30:20 PM
* REW Settings:
*  C-weighting compensation: Off
*  Target level: 75.0 dB
* Note: ; 
* Measurement: Apr 30 21:30:20
* Smoothing: 1/48 octave
* Frequency Step: 1/48 octave
* Start Frequency: 10.1 Hz
*
* Freq(Hz), SPL(dB), Phase(degrees)
10.145, 64.657, 92.529
10.293, 64.717, 91.860
10.443, 64.780, 90.966
10.595, 64.878, 89.804
10.749, 64.981, 88.598
10.905, 65.061, 87.690
11.064, 65.135, 86.885
11.225, 65.217, 85.951
11.388, 65.304, 84.957
11.554, 65.386, 83.984
11.722, 65.465, 83.021
11.892, 65.540, 82.062
12.065, 65.610, 81.109
12.241, 65.678, 80.150
12.419, 65.742, 79.200
12.599, 65.802, 78.302
12.782, 65.860, 77.438
12.968, 65.920, 76.590
13.157, 65.982, 75.764
13.348, 66.048, 74.963
13.543, 66.117, 74.155
13.740, 66.189, 73.334
13.939, 66.263, 72.482
14.142, 66.335, 71.602
14.348, 66.405, 70.691
14.557, 66.468, 69.763
14.768, 66.526, 68.827
14.983, 66.576, 67.911
15.201, 66.622, 67.023
15.422, 66.664, 66.175
15.646, 66.706, 65.370
15.874, 66.751, 64.597
16.105, 66.799, 63.847
16.339, 66.850, 63.099
16.577, 66.904, 62.344
16.818, 66.959, 61.576
17.063, 67.013, 60.796
17.311, 67.064, 60.017
17.563, 67.113, 59.247
17.818, 67.161, 58.493
18.077, 67.209, 57.756
18.340, 67.259, 57.028
18.607, 67.310, 56.298
18.877, 67.362, 55.558
19.152, 67.412, 54.804
19.431, 67.458, 54.043
19.713, 67.501, 53.288
20.000, 67.539, 52.552
20.291, 67.576, 51.843
20.586, 67.613, 51.163
20.885, 67.652, 50.500
21.189, 67.693, 49.837
21.497, 67.737, 49.158
21.810, 67.779, 48.455
22.127, 67.817, 47.733
22.449, 67.849, 47.007
22.776, 67.876, 46.295
23.107, 67.899, 45.613
23.443, 67.920, 44.968
23.784, 67.943, 44.353
24.130, 67.969, 43.753
24.481, 67.997, 43.153
24.837, 68.026, 42.543
25.198, 68.055, 41.925
25.565, 68.082, 41.305
25.937, 68.108, 40.688
26.314, 68.134, 40.076
26.697, 68.158, 39.465
27.085, 68.181, 38.852
27.479, 68.202, 38.242
27.879, 68.220, 37.646
28.284, 68.237, 37.071
28.696, 68.254, 36.515
29.113, 68.273, 35.970
29.537, 68.292, 35.425
29.966, 68.311, 34.876
30.402, 68.329, 34.325
30.844, 68.346, 33.774
31.293, 68.362, 33.225
31.748, 68.375, 32.679
32.210, 68.387, 32.142
32.678, 68.398, 31.617
33.154, 68.409, 31.101
33.636, 68.419, 30.589
34.125, 68.429, 30.077
34.621, 68.436, 29.574
35.125, 68.443, 29.086
35.636, 68.450, 28.610
36.154, 68.458, 28.132
36.680, 68.464, 27.651
37.214, 68.467, 27.182
37.755, 68.470, 26.735
38.304, 68.475, 26.298
38.861, 68.480, 25.848
39.427, 68.483, 25.389
40.000, 68.483, 24.941
40.582, 68.482, 24.508
41.172, 68.480, 24.077
41.771, 68.475, 23.664
42.379, 68.470, 23.302
42.995, 68.472, 22.955
43.620, 68.476, 22.562
44.255, 68.469, 22.179
44.898, 68.461, 21.899
45.552, 68.472, 21.636
46.214, 68.485, 21.247
46.886, 68.475, 20.859
47.568, 68.468, 20.656
48.260, 68.497, 20.440
48.962, 68.528, 19.961
49.674, 68.523, 19.433
50.397, 68.512, 19.097
51.130, 68.524, 18.770
51.874, 68.533, 18.304
52.628, 68.524, 17.851
53.394, 68.511, 17.470
54.170, 68.500, 17.105
54.958, 68.488, 16.743
55.758, 68.471, 16.346
56.569, 68.438, 15.971
57.391, 68.404, 15.714
58.226, 68.380, 15.473
59.073, 68.352, 15.214
59.932, 68.323, 15.027
60.804, 68.301, 14.868
61.688, 68.277, 14.735
62.586, 68.256, 14.667
63.496, 68.244, 14.614
64.420, 68.234, 14.542
65.357, 68.224, 14.479
66.307, 68.222, 14.415
67.272, 68.220, 14.312
68.250, 68.224, 14.263
69.243, 68.236, 14.159
70.250, 68.252, 14.217
71.272, 68.322, 14.061
72.309, 68.304, 13.548
73.360, 68.251, 13.842
74.427, 68.296, 14.112
75.510, 68.319, 14.106
76.608, 68.354, 14.109
77.723, 68.381, 13.907
78.853, 68.402, 13.764
80.000, 68.436, 13.557
81.164, 68.457, 13.315
82.344, 68.477, 13.214
83.542, 68.511, 13.118
84.757, 68.539, 12.995
85.990, 68.572, 12.842
87.241, 68.595, 12.599
88.510, 68.618, 12.378
89.797, 68.645, 12.112
91.103, 68.674, 11.859
92.428, 68.707, 11.601
93.773, 68.736, 11.330
95.137, 68.761, 11.071
96.520, 68.788, 10.830
97.924, 68.818, 10.472
99.349, 68.826, 10.125
100.794, 68.841, 9.845
102.260, 68.861, 9.502
103.747, 68.871, 9.123
105.256, 68.884, 8.798
106.787, 68.903, 8.393
108.340, 68.911, 7.984
109.916, 68.909, 7.644
111.515, 68.907, 7.323
113.137, 68.896, 7.009
114.783, 68.884, 6.621
116.452, 68.865, 6.219
118.146, 68.853, 5.861
119.865, 68.834, 5.400
121.608, 68.793, 5.285
123.377, 68.783, 5.221
125.171, 68.771, 5.124
126.992, 68.756, 4.961
128.839, 68.733, 4.773
130.713, 68.716, 4.643
132.615, 68.711, 4.542
134.543, 68.713, 4.461
136.500, 68.719, 4.422
138.486, 68.727, 4.326
140.500, 68.735, 4.122
142.544, 68.748, 3.871
144.617, 68.777, 3.597
146.721, 68.765, 3.358
148.855, 68.760, 3.316
151.020, 68.747, 3.157
153.217, 68.752, 2.883
155.445, 68.757, 2.597
157.706, 68.756, 2.512
160.000, 68.735, 2.618
162.327, 68.768, 2.476
164.688, 68.757, 1.891
167.084, 68.743, 1.419
169.514, 68.735, 1.175
171.980, 68.728, 1.062
174.481, 68.721, 0.894
177.019, 68.715, 0.669
179.594, 68.705, 0.350
182.206, 68.696, -0.011
184.856, 68.684, -0.339
187.545, 68.666, -0.615
190.273, 68.621, -0.681
193.041, 68.567, -0.852
195.849, 68.517, -0.926
198.697, 68.510, -0.808
201.587, 68.522, -0.847
204.520, 68.525, -1.145
207.494, 68.530, -1.307
210.512, 68.532, -1.427
213.574, 68.522, -1.601
216.681, 68.511, -1.841
219.833, 68.512, -1.973
223.030, 68.508, -2.225
226.274, 68.508, -2.487
229.565, 68.523, -2.613
232.905, 68.499, -2.802
236.292, 68.462, -3.137
239.729, 68.451, -3.501
243.216, 68.430, -3.797
246.754, 68.385, -3.985
250.343, 68.366, -4.345
253.984, 68.351, -4.518
257.678, 68.304, -4.706
261.426, 68.280, -4.961
265.229, 68.259, -5.121
269.087, 68.226, -5.356
273.001, 68.188, -5.532
276.972, 68.159, -5.721
281.000, 68.128, -6.001
285.088, 68.095, -6.237
289.234, 68.061, -6.473
293.441, 68.019, -6.598
297.710, 67.958, -6.732
302.040, 67.907, -6.658
306.433, 67.886, -6.659
310.890, 67.843, -7.036
315.412, 67.791, -7.177
320.000, 67.731, -7.347
324.655, 67.691, -7.487
329.377, 67.655, -7.565
334.168, 67.606, -7.599
339.028, 67.563, -7.694
343.959, 67.519, -7.831
348.962, 67.469, -7.942
354.038, 67.412, -8.058
359.188, 67.357, -8.073
364.412, 67.319, -8.070
369.713, 67.266, -8.136
375.090, 67.206, -8.176
380.546, 67.142, -8.212
386.081, 67.090, -8.158
391.697, 67.026, -8.178
397.395, 66.968, -8.125
403.175, 66.925, -8.092
409.039, 66.877, -8.111
414.989, 66.810, -8.097
421.025, 66.738, -7.968
427.149, 66.687, -7.817
433.362, 66.629, -7.735
439.665, 66.564, -7.666
446.060, 66.527, -7.467
452.548, 66.476, -7.495
459.131, 66.391, -7.346
465.809, 66.353, -7.081
472.584, 66.297, -7.014
479.458, 66.237, -6.781
486.432, 66.202, -6.589
493.507, 66.142, -6.496
500.686, 66.091, -6.281
507.968, 66.047, -6.263
515.357, 65.974, -6.213
522.853, 65.897, -6.020
530.458, 65.823, -5.716
538.174, 65.758, -5.514
546.002, 65.698, -5.255
553.943, 65.627, -5.157
562.001, 65.521, -4.959
570.175, 65.393, -4.525
578.469, 65.318, -3.715
586.883, 65.286, -3.201
595.419, 65.211, -2.741
604.080, 65.157, -2.035
612.866, 65.123, -1.619
621.780, 65.046, -1.074
630.824, 64.996, -0.292
640.000, 64.978, 0.367
649.309, 64.941, 0.845
658.753, 64.899, 1.579
668.335, 64.877, 2.333
678.056, 64.867, 3.014
687.919, 64.859, 3.798
697.925, 64.901, 4.354
708.076, 64.886, 4.715
718.376, 64.875, 5.311
728.825, 64.889, 5.689
739.426, 64.860, 6.176
750.181, 64.855, 6.771
761.093, 64.853, 7.389
772.163, 64.863, 7.829
783.394, 64.843, 8.157
794.789, 64.820, 8.748
806.349, 64.810, 9.228
818.078, 64.770, 9.884
829.977, 64.751, 10.626
842.050, 64.752, 11.405
854.297, 64.772, 12.117
866.724, 64.765, 12.680
879.330, 64.743, 13.660
892.120, 64.799, 14.663
905.097, 64.867, 15.265
918.262, 64.877, 15.912
931.618, 64.949, 16.782
945.169, 65.008, 17.442
958.917, 65.122, 17.825
972.864, 65.153, 18.086
987.015, 65.189, 18.578
1001.371, 65.228, 18.932
1015.937, 65.258, 19.447
1030.714, 65.279, 20.055
1045.706, 65.359, 20.682
1060.916, 65.412, 20.716
1076.347, 65.359, 21.172
1092.003, 65.414, 21.876
1107.887, 65.450, 22.452
1124.001, 65.515, 23.099
1140.350, 65.563, 23.599
1156.937, 65.623, 24.154
1173.765, 65.638, 24.726
1190.838, 65.713, 25.579
1208.159, 65.811, 25.921
1225.732, 65.834, 26.414
1243.561, 65.912, 27.171
1261.649, 65.996, 27.599
1280.000, 66.064, 28.191
1298.618, 66.156, 28.738
1317.507, 66.262, 29.118
1336.670, 66.335, 29.522
1356.113, 66.435, 30.011
1375.838, 66.528, 30.277
1395.850, 66.631, 30.550
1416.153, 66.703, 30.566
1436.751, 66.747, 30.781
1457.649, 66.773, 31.078
1478.851, 66.834, 31.738
1500.362, 66.896, 32.175
1522.185, 67.001, 32.910
1544.326, 67.126, 33.160
1566.789, 67.215, 33.425
1589.578, 67.310, 33.627
1612.699, 67.369, 33.861
1636.156, 67.465, 34.375
1659.955, 67.576, 34.557
1684.099, 67.664, 34.830
1708.595, 67.769, 34.974
1733.447, 67.840, 34.980
1758.661, 67.887, 35.241
1784.241, 67.965, 35.510
1810.193, 68.008, 35.803
1836.523, 68.098, 36.265
1863.236, 68.165, 36.342
1890.338, 68.176, 36.959
1917.833, 68.288, 37.709
1945.729, 68.359, 38.301
1974.030, 68.501, 39.094
2002.743, 68.623, 39.475
2031.873, 68.742, 40.244
2061.428, 68.914, 40.885
2091.412, 69.115, 41.608
2121.832, 69.379, 41.702
2152.695, 69.521, 41.525
2184.007, 69.687, 41.749
2215.774, 69.861, 41.999
2248.003, 70.085, 42.128
2280.701, 70.299, 41.978
2313.874, 70.496, 41.647
2347.530, 70.670, 41.447
2381.676, 70.881, 41.297
2416.318, 71.104, 40.773
2451.464, 71.290, 40.155
2487.122, 71.466, 39.541
2523.298, 71.650, 38.977
2560.000, 71.852, 38.059
2597.236, 72.013, 37.013
2635.014, 72.143, 35.825
2673.341, 72.256, 34.730
2712.226, 72.338, 33.521
2751.676, 72.389, 32.492
2791.700, 72.449, 31.605
2832.306, 72.513, 30.620
2873.503, 72.546, 29.627
2915.299, 72.560, 28.741
2957.703, 72.589, 28.025
3000.724, 72.619, 27.198
3044.370, 72.630, 26.374
3088.652, 72.637, 25.745
3133.577, 72.679, 25.105
3179.156, 72.728, 24.318
3225.398, 72.782, 23.416
3272.312, 72.829, 22.236
3319.909, 72.823, 20.844
3368.198, 72.771, 19.622
3417.190, 72.724, 18.509
3466.894, 72.661, 17.234
3517.321, 72.559, 15.888
3568.482, 72.405, 14.675
3620.387, 72.239, 13.690
3673.046, 72.054, 12.600
3726.472, 71.794, 11.682
3780.675, 71.502, 11.183
3835.666, 71.186, 11.040
3891.457, 70.852, 11.353
3948.060, 70.527, 12.134
4005.486, 70.207, 13.382
4063.747, 69.939, 15.275
4122.855, 69.778, 17.324
4182.824, 69.631, 19.197
4243.664, 69.485, 21.499
4305.390, 69.386, 24.371
4368.013, 69.444, 27.667
4431.547, 69.631, 30.575
4496.005, 69.893, 33.133
4561.401, 70.231, 35.363
4627.749, 70.614, 36.918
4695.061, 71.016, 38.283
4763.352, 71.478, 39.073
4832.637, 71.945, 39.281
4902.929, 72.390, 38.916
4974.244, 72.823, 38.310
5046.596, 73.269, 37.154
5120.000, 73.643, 35.307
5194.472, 73.944, 33.438
5270.027, 74.239, 31.544
5346.682, 74.564, 29.200
5424.451, 74.832, 25.966
5503.352, 74.976, 22.217
5583.399, 74.999, 18.167
5664.612, 74.856, 13.861
5747.006, 74.526, 9.888
5830.598, 74.034, 6.435
5915.406, 73.360, 3.954
6001.447, 72.557, 3.152
6088.740, 71.768, 4.288
6177.303, 71.096, 6.777
6267.154, 70.526, 10.516
6358.312, 70.166, 15.606
6450.796, 70.128, 21.273
6544.625, 70.402, 26.467
6639.818, 70.887, 30.532
6736.397, 71.501, 33.438
6834.380, 72.190, 35.055
6933.789, 72.898, 35.456
7034.643, 73.596, 34.789
7136.964, 74.262, 32.965
7240.773, 74.815, 30.033
7346.093, 75.223, 26.550
7452.944, 75.507, 22.839
7561.350, 75.687, 19.099
7671.332, 75.786, 15.360
7782.915, 75.809, 11.775
7896.120, 75.825, 8.280
8010.971, 75.809, 4.141
8127.493, 75.607, -0.466
8245.711, 75.217, -4.595
8365.647, 74.686, -7.927
8487.328, 74.043, -10.081
8610.779, 73.377, -10.411
8736.026, 72.956, -9.088
8863.095, 72.928, -9.095
8992.011, 72.653, -10.981
9122.803, 72.276, -11.862
9255.497, 71.927, -12.475
9390.121, 71.564, -13.220
9526.704, 71.130, -13.752
9665.273, 70.652, -13.717
9805.857, 70.182, -12.955
9948.487, 69.774, -11.597
10093.191, 69.451, -9.837
10240.000, 69.248, -7.796
10388.944, 69.190, -5.988
10540.055, 69.230, -4.764
10693.363, 69.346, -4.198
10848.902, 69.530, -4.739
11006.703, 69.637, -7.108
11166.799, 69.407, -10.477
11329.224, 68.852, -12.549
11494.012, 68.214, -12.743
11661.195, 67.660, -11.112
11830.812, 67.364, -8.686
12002.895, 67.304, -6.903
12177.480, 67.318, -6.297
12354.606, 67.339, -6.651
12534.309, 67.303, -8.283
12716.624, 67.086, -10.890
12901.592, 66.599, -14.420
13089.250, 65.490, -16.646
13279.637, 64.175, -12.529
13472.794, 63.759, -4.823
13668.760, 63.894, -1.164
13867.577, 63.746, 3.999
14069.285, 64.820, 10.200
14273.928, 66.183, 6.897
14481.547, 66.870, -1.772
14692.186, 66.847, -13.971
14905.889, 65.656, -27.475
15122.700, 63.211, -35.275
15342.664, 60.114, -35.032
15565.829, 56.684, -20.659
15792.239, 55.372, 3.527
16021.942, 56.028, 23.292
16254.986, 57.988, 39.352
16491.422, 60.633, 45.861
16731.295, 63.188, 43.740
16974.656, 65.122, 32.767
17221.559, 65.778, 17.024
17472.053, 65.304, 2.324
17726.189, 63.918, -8.116
17984.021, 62.195, -11.604
18245.605, 60.965, -9.935
18510.994, 60.664, -9.170
18780.242, 60.514, -14.956
19053.408, 59.270, -23.489
19330.547, 57.209, -24.718
19611.715, 55.670, -21.120
19896.975, 54.625, -18.521
