* Measurement data measured by REW V5.19
* Source: ASIO MOTU M Series, In 1
* Format: 1M Log Swept Sine, 1 sweep at -10.0 dBFS  With no timing reference
* Dated: 30 Apr, 2021 9:29:43 PM
* REW Settings:
*  C-weighting compensation: Off
*  Target level: 75.0 dB
* Note: ; 
* Measurement: Apr 30 21:29:43
* Smoothing: 1/48 octave
* Frequency Step: 1/48 octave
* Start Frequency: 10.1 Hz
*
* Freq(Hz), SPL(dB), Phase(degrees)
10.145, 64.442, 92.774
10.293, 64.508, 92.072
10.443, 64.576, 91.133
10.595, 64.679, 89.910
10.749, 64.786, 88.641
10.905, 64.865, 87.690
11.064, 64.935, 86.855
11.225, 65.015, 85.904
11.388, 65.099, 84.906
11.554, 65.181, 83.940
11.722, 65.261, 82.993
11.892, 65.340, 82.045
12.065, 65.416, 81.097
12.241, 65.490, 80.125
12.419, 65.561, 79.145
12.599, 65.626, 78.198
12.782, 65.687, 77.273
12.968, 65.745, 76.359
13.157, 65.802, 75.476
13.348, 65.857, 74.638
13.543, 65.914, 73.824
13.740, 65.974, 73.032
13.939, 66.038, 72.244
14.142, 66.103, 71.456
14.348, 66.171, 70.653
14.557, 66.238, 69.831
14.768, 66.304, 68.989
14.983, 66.365, 68.140
15.201, 66.422, 67.293
15.422, 66.476, 66.458
15.646, 66.526, 65.649
15.874, 66.576, 64.863
16.105, 66.627, 64.100
16.339, 66.679, 63.348
16.577, 66.733, 62.595
16.818, 66.788, 61.834
17.063, 66.842, 61.060
17.311, 66.893, 60.282
17.563, 66.940, 59.507
17.818, 66.985, 58.747
18.077, 67.027, 58.011
18.340, 67.071, 57.299
18.607, 67.116, 56.603
18.877, 67.163, 55.912
19.152, 67.212, 55.213
19.431, 67.262, 54.500
19.713, 67.310, 53.772
20.000, 67.356, 53.036
20.291, 67.398, 52.299
20.586, 67.438, 51.567
20.885, 67.475, 50.846
21.189, 67.510, 50.138
21.497, 67.544, 49.446
21.810, 67.577, 48.773
22.127, 67.611, 48.116
22.449, 67.647, 47.467
22.776, 67.685, 46.811
23.107, 67.722, 46.136
23.443, 67.758, 45.439
23.784, 67.787, 44.732
24.130, 67.809, 44.043
24.481, 67.828, 43.397
24.837, 67.847, 42.801
25.198, 67.870, 42.239
25.565, 67.899, 41.679
25.937, 67.931, 41.096
26.314, 67.963, 40.482
26.697, 67.991, 39.850
27.085, 68.014, 39.219
27.479, 68.034, 38.601
27.879, 68.051, 38.001
28.284, 68.066, 37.422
28.696, 68.080, 36.870
29.113, 68.095, 36.346
29.537, 68.114, 35.836
29.966, 68.136, 35.315
30.402, 68.159, 34.768
30.844, 68.177, 34.202
31.293, 68.190, 33.639
31.748, 68.201, 33.098
32.210, 68.210, 32.579
32.678, 68.219, 32.072
33.154, 68.229, 31.574
33.636, 68.240, 31.080
34.125, 68.251, 30.584
34.621, 68.262, 30.078
35.125, 68.270, 29.567
35.636, 68.276, 29.059
36.154, 68.281, 28.561
36.680, 68.283, 28.077
37.214, 68.285, 27.617
37.755, 68.289, 27.177
38.304, 68.296, 26.730
38.861, 68.299, 26.261
39.427, 68.294, 25.811
40.000, 68.287, 25.425
40.582, 68.286, 25.078
41.172, 68.288, 24.722
41.771, 68.289, 24.363
42.379, 68.290, 24.027
42.995, 68.294, 23.686
43.620, 68.296, 23.332
44.255, 68.295, 23.022
44.898, 68.303, 22.755
45.552, 68.321, 22.448
46.214, 68.338, 22.106
46.886, 68.359, 21.788
47.568, 68.391, 21.405
48.260, 68.412, 20.882
48.962, 68.404, 20.399
49.674, 68.394, 20.107
50.397, 68.406, 19.853
51.130, 68.425, 19.476
51.874, 68.431, 19.032
52.628, 68.427, 18.587
53.394, 68.416, 18.143
54.170, 68.398, 17.724
54.958, 68.377, 17.342
55.758, 68.357, 16.968
56.569, 68.332, 16.591
57.391, 68.300, 16.239
58.226, 68.263, 15.950
59.073, 68.226, 15.717
59.932, 68.188, 15.525
60.804, 68.151, 15.388
61.688, 68.119, 15.315
62.586, 68.100, 15.296
63.496, 68.095, 15.237
64.420, 68.083, 15.172
65.357, 68.077, 15.226
66.307, 68.084, 15.260
67.272, 68.083, 15.283
68.250, 68.079, 15.338
69.243, 68.074, 15.415
70.250, 68.065, 15.376
71.272, 68.016, 15.530
72.309, 68.061, 16.079
73.360, 68.170, 15.760
74.427, 68.175, 15.304
75.510, 68.207, 15.234
76.608, 68.245, 15.012
77.723, 68.280, 14.955
78.853, 68.326, 14.845
80.000, 68.363, 14.725
81.164, 68.401, 14.559
82.344, 68.437, 14.348
83.542, 68.475, 14.069
84.757, 68.507, 13.788
85.990, 68.546, 13.527
87.241, 68.576, 13.234
88.510, 68.600, 13.027
89.797, 68.627, 12.790
91.103, 68.648, 12.489
92.428, 68.663, 12.157
93.773, 68.683, 11.844
95.137, 68.710, 11.519
96.520, 68.749, 11.143
97.924, 68.756, 10.753
99.349, 68.770, 10.531
100.794, 68.772, 10.255
102.260, 68.783, 10.046
103.747, 68.801, 9.783
105.256, 68.835, 9.417
106.787, 68.840, 8.921
108.340, 68.821, 8.632
109.916, 68.820, 8.426
111.515, 68.824, 8.126
113.137, 68.825, 7.744
114.783, 68.821, 7.434
116.452, 68.825, 7.136
118.146, 68.811, 6.818
119.865, 68.780, 6.654
121.608, 68.781, 6.365
123.377, 68.762, 5.972
125.171, 68.748, 5.649
126.992, 68.732, 5.437
128.839, 68.711, 5.261
130.713, 68.684, 5.139
132.615, 68.667, 5.037
134.543, 68.664, 4.892
136.500, 68.668, 4.810
138.486, 68.673, 4.679
140.500, 68.677, 4.566
142.544, 68.680, 4.411
144.617, 68.689, 4.290
146.721, 68.691, 4.097
148.855, 68.679, 3.907
151.020, 68.679, 3.731
153.217, 68.687, 3.475
155.445, 68.695, 3.278
157.706, 68.703, 3.110
160.000, 68.730, 3.155
162.327, 68.788, 2.752
164.688, 68.748, 2.417
167.084, 68.705, 2.228
169.514, 68.679, 1.944
171.980, 68.676, 1.678
174.481, 68.674, 1.500
177.019, 68.664, 1.287
179.594, 68.644, 0.956
182.206, 68.641, 0.683
184.856, 68.633, 0.451
187.545, 68.608, 0.359
190.273, 68.572, 0.148
193.041, 68.544, -0.088
195.849, 68.527, -0.294
198.697, 68.490, -0.454
201.587, 68.465, -0.454
204.520, 68.460, -0.457
207.494, 68.478, -0.513
210.512, 68.480, -0.635
213.574, 68.478, -0.785
216.681, 68.484, -0.981
219.833, 68.495, -1.143
223.030, 68.485, -1.369
226.274, 68.490, -1.643
229.565, 68.502, -2.014
232.905, 68.469, -2.341
236.292, 68.462, -2.619
239.729, 68.455, -2.767
243.216, 68.436, -3.038
246.754, 68.402, -3.482
250.343, 68.368, -3.720
253.984, 68.321, -3.838
257.678, 68.295, -4.015
261.426, 68.296, -4.292
265.229, 68.273, -4.523
269.087, 68.233, -4.768
273.001, 68.198, -5.024
276.972, 68.161, -5.239
281.000, 68.128, -5.484
285.088, 68.082, -5.670
289.234, 68.021, -5.854
293.441, 67.979, -5.914
297.710, 67.943, -6.118
302.040, 67.903, -6.322
306.433, 67.868, -6.517
310.890, 67.799, -6.392
315.412, 67.765, -6.492
320.000, 67.708, -6.530
324.655, 67.672, -6.591
329.377, 67.639, -6.715
334.168, 67.591, -6.861
339.028, 67.538, -6.887
343.959, 67.497, -6.869
348.962, 67.458, -6.994
354.038, 67.407, -7.099
359.188, 67.347, -7.171
364.412, 67.298, -7.182
369.713, 67.254, -7.231
375.090, 67.195, -7.184
380.546, 67.136, -7.143
386.081, 67.088, -7.198
391.697, 67.032, -7.205
397.395, 66.971, -7.101
403.175, 66.929, -6.986
409.039, 66.874, -6.994
414.989, 66.815, -6.931
421.025, 66.757, -6.817
427.149, 66.713, -6.619
433.362, 66.665, -6.563
439.665, 66.614, -6.463
446.060, 66.575, -6.315
452.548, 66.545, -6.329
459.131, 66.467, -6.128
465.809, 66.427, -5.969
472.584, 66.373, -6.050
479.458, 66.326, -5.791
486.432, 66.266, -5.583
493.507, 66.206, -5.508
500.686, 66.152, -5.334
507.968, 66.110, -5.161
515.357, 66.044, -5.012
522.853, 65.980, -4.835
530.458, 65.918, -4.495
538.174, 65.858, -4.252
546.002, 65.817, -3.989
553.943, 65.763, -3.968
562.001, 65.678, -3.869
570.175, 65.571, -3.572
578.469, 65.497, -2.844
586.883, 65.469, -2.406
595.419, 65.399, -2.163
604.080, 65.324, -1.653
612.866, 65.267, -1.285
621.780, 65.178, -0.737
630.824, 65.112, -0.055
640.000, 65.071, 0.544
649.309, 65.016, 1.091
658.753, 64.945, 1.915
668.335, 64.914, 2.788
678.056, 64.892, 3.580
687.919, 64.873, 4.566
697.925, 64.925, 5.265
708.076, 64.926, 5.773
718.376, 64.939, 6.470
728.825, 64.971, 6.854
739.426, 64.960, 7.373
750.181, 64.957, 7.898
761.093, 64.965, 8.559
772.163, 65.000, 9.009
783.394, 64.996, 9.401
794.789, 65.002, 9.963
806.349, 65.014, 10.378
818.078, 65.001, 10.852
829.977, 65.002, 11.314
842.050, 64.993, 11.894
854.297, 64.994, 12.446
866.724, 64.958, 12.927
879.330, 64.927, 13.847
892.120, 64.977, 14.747
905.097, 65.024, 15.336
918.262, 65.019, 15.946
931.618, 65.066, 16.867
945.169, 65.121, 17.654
958.917, 65.230, 18.071
972.864, 65.258, 18.341
987.015, 65.288, 18.847
1001.371, 65.322, 19.280
1015.937, 65.359, 19.784
1030.714, 65.375, 20.364
1045.706, 65.446, 21.050
1060.916, 65.497, 21.140
1076.347, 65.477, 21.568
1092.003, 65.523, 22.358
1107.887, 65.558, 22.978
1124.001, 65.622, 23.621
1140.350, 65.670, 24.168
1156.937, 65.722, 24.652
1173.765, 65.736, 25.258
1190.838, 65.813, 26.111
1208.159, 65.906, 26.483
1225.732, 65.928, 27.012
1243.561, 66.000, 27.788
1261.649, 66.083, 28.279
1280.000, 66.155, 28.913
1298.618, 66.246, 29.504
1317.507, 66.353, 29.986
1336.670, 66.433, 30.396
1356.113, 66.540, 30.884
1375.838, 66.628, 31.179
1395.850, 66.734, 31.487
1416.153, 66.813, 31.578
1436.751, 66.865, 31.888
1457.649, 66.901, 32.232
1478.851, 66.980, 32.954
1500.362, 67.057, 33.390
1522.185, 67.178, 34.082
1544.326, 67.295, 34.257
1566.789, 67.383, 34.577
1589.578, 67.481, 34.804
1612.699, 67.544, 35.147
1636.156, 67.647, 35.674
1659.955, 67.759, 35.933
1684.099, 67.856, 36.335
1708.595, 67.981, 36.611
1733.447, 68.082, 36.701
1758.661, 68.165, 37.058
1784.241, 68.289, 37.286
1810.193, 68.373, 37.416
1836.523, 68.483, 37.623
1863.236, 68.538, 37.527
1890.338, 68.547, 38.130
1917.833, 68.659, 38.905
1945.729, 68.749, 39.588
1974.030, 68.925, 40.425
2002.743, 69.099, 40.789
2031.873, 69.279, 41.300
2061.428, 69.474, 41.455
2091.412, 69.669, 41.744
2121.832, 69.891, 41.473
2152.695, 70.008, 41.254
2184.007, 70.164, 41.342
2215.774, 70.318, 41.442
2248.003, 70.509, 41.502
2280.701, 70.690, 41.367
2313.874, 70.864, 41.297
2347.530, 71.061, 41.346
2381.676, 71.316, 41.237
2416.318, 71.572, 40.536
2451.464, 71.780, 39.718
2487.122, 71.968, 38.828
2523.298, 72.149, 37.951
2560.000, 72.330, 36.819
2597.236, 72.471, 35.606
2635.014, 72.577, 34.254
2673.341, 72.655, 33.095
2712.226, 72.717, 31.895
2751.676, 72.754, 30.838
2791.700, 72.789, 29.924
2832.306, 72.831, 29.018
2873.503, 72.866, 28.117
2915.299, 72.893, 27.181
2957.703, 72.917, 26.281
3000.724, 72.916, 25.368
3044.370, 72.905, 24.646
3088.652, 72.904, 24.107
3133.577, 72.936, 23.546
3179.156, 72.980, 22.827
3225.398, 73.028, 21.970
3272.312, 73.072, 20.861
3319.909, 73.074, 19.562
3368.198, 73.028, 18.355
3417.190, 72.978, 17.349
3466.894, 72.933, 16.225
3517.321, 72.856, 14.939
3568.482, 72.733, 13.735
3620.387, 72.591, 12.654
3673.046, 72.421, 11.514
3726.472, 72.189, 10.536
3780.675, 71.926, 9.862
3835.666, 71.629, 9.464
3891.457, 71.293, 9.512
3948.060, 70.951, 10.180
4005.486, 70.624, 11.496
4063.747, 70.380, 13.402
4122.855, 70.225, 15.493
4182.824, 70.139, 17.576
4243.664, 70.112, 19.744
4305.390, 70.131, 21.828
4368.013, 70.224, 23.968
4431.547, 70.369, 25.802
4496.005, 70.544, 27.579
4561.401, 70.802, 29.229
4627.749, 71.086, 30.258
4695.061, 71.388, 31.293
4763.352, 71.743, 31.813
4832.637, 72.104, 31.871
4902.929, 72.440, 31.446
4974.244, 72.758, 30.913
5046.596, 73.107, 29.994
5120.000, 73.404, 28.504
5194.472, 73.664, 26.888
5270.027, 73.894, 25.081
5346.682, 74.132, 22.974
5424.451, 74.329, 20.192
5503.352, 74.426, 16.904
5583.399, 74.410, 13.352
5664.612, 74.252, 9.516
5747.006, 73.912, 5.926
5830.598, 73.406, 2.921
5915.406, 72.746, 0.895
6001.447, 71.962, 0.384
6088.740, 71.184, 1.794
6177.303, 70.512, 4.712
6267.154, 70.012, 9.082
6358.312, 69.776, 14.312
6450.796, 69.852, 19.730
6544.625, 70.223, 24.331
6639.818, 70.757, 27.542
6736.397, 71.390, 29.442
6834.380, 72.041, 29.818
6933.789, 72.634, 28.988
7034.643, 73.162, 27.152
7136.964, 73.578, 24.249
7240.773, 73.799, 20.588
7346.093, 73.786, 16.830
7452.944, 73.553, 13.732
7561.350, 73.170, 11.951
7671.332, 72.743, 11.881
7782.915, 72.436, 13.649
7896.120, 72.431, 16.396
8010.971, 72.746, 18.559
8127.493, 73.200, 19.351
8245.711, 73.707, 19.153
8365.647, 74.289, 17.941
8487.328, 74.907, 15.238
8610.779, 75.494, 10.916
8736.026, 76.035, 4.602
8863.095, 76.354, -5.873
8992.011, 75.558, -17.549
9122.803, 74.154, -24.827
9255.497, 72.518, -27.983
9390.121, 70.875, -27.331
9526.704, 69.411, -23.041
9665.273, 68.368, -16.079
9805.857, 67.865, -7.988
9948.487, 67.874, -0.324
10093.191, 68.264, 6.137
10240.000, 69.027, 11.123
10388.944, 70.137, 13.067
10540.055, 71.251, 10.478
10693.363, 71.971, 4.158
10848.902, 72.169, -3.900
11006.703, 71.795, -12.063
11166.799, 70.929, -18.290
11329.224, 69.831, -21.828
11494.012, 68.622, -23.597
11661.195, 67.135, -22.560
11830.812, 65.585, -15.321
12002.895, 65.099, -2.039
12177.480, 66.243, 8.087
12354.606, 67.737, 9.300
12534.309, 68.725, 4.305
12716.624, 69.079, -3.479
12901.592, 68.731, -12.417
13089.250, 67.509, -19.134
13279.637, 65.830, -19.164
13472.794, 64.645, -13.280
13668.760, 64.165, -7.521
13867.577, 64.055, 0.908
14069.285, 65.412, 5.983
14273.928, 66.467, 0.337
14481.547, 66.632, -9.064
14692.186, 65.743, -19.532
14905.889, 63.643, -22.790
15122.700, 62.042, -15.738
15342.664, 61.496, -11.230
15565.829, 60.812, -7.138
15792.239, 60.435, -2.472
16021.942, 59.877, 0.372
16254.986, 59.042, 9.285
16491.422, 59.643, 22.384
16731.295, 61.722, 29.833
16974.656, 63.909, 24.954
17221.559, 64.799, 11.619
17472.053, 64.427, -1.524
17726.189, 63.130, -10.438
17984.021, 61.499, -12.038
18245.605, 60.567, -8.363
18510.994, 60.718, -6.863
18780.242, 61.005, -13.093
19053.408, 60.210, -23.486
19330.547, 58.500, -29.151
19611.715, 56.795, -30.680
19896.975, 55.250, -31.086
