* Measurement data measured by REW V5.19
* Source: ASIO MOTU M Series, In 1
* Format: 1M Log Swept Sine, 2 sweeps at -10.0 dBFS  With no timing reference
* Dated: 16 Sep, 2020 4:21:04 PM
* REW Settings:
*  C-weighting compensation: Off
*  Target level: 75.0 dB
* Note: ; 
* Measurement: Sep 16 16:21:04
* Smoothing: None
* Frequency Step: 1/48 octave
* Start Frequency: 10.0 Hz
*
* Freq(Hz), SPL(dB), Phase(degrees)
10.145, 63.093, -80.842
10.293, 63.193, -81.890
10.443, 63.302, -82.895
10.595, 63.413, -83.934
10.749, 63.521, -85.017
10.905, 63.628, -86.135
11.064, 63.729, -87.263
11.225, 63.824, -88.406
11.388, 63.912, -89.528
11.554, 63.994, -90.619
11.722, 64.072, -91.671
11.892, 64.149, -92.664
12.065, 64.225, -93.612
12.241, 64.306, -94.517
12.419, 64.389, -95.391
12.599, 64.477, -96.261
12.782, 64.567, -97.127
12.968, 64.656, -98.012
13.157, 64.743, -98.904
13.348, 64.824, -99.796
13.543, 64.899, -100.671
13.740, 64.967, -101.501
13.939, 65.033, -102.278
14.142, 65.098, -102.982
14.348, 65.169, -103.641
14.557, 65.249, -104.257
14.768, 65.339, -104.901
14.983, 65.438, -105.587
15.201, 65.540, -106.375
15.422, 65.637, -107.256
15.646, 65.722, -108.237
15.874, 65.788, -109.251
16.105, 65.835, -110.267
16.339, 65.863, -111.204
16.577, 65.885, -112.034
16.818, 65.906, -112.743
17.063, 65.941, -113.366
17.311, 65.992, -113.983
17.563, 66.060, -114.648
17.818, 66.136, -115.447
18.077, 66.206, -116.372
18.340, 66.261, -117.391
18.607, 66.293, -118.430
18.877, 66.306, -119.373
19.152, 66.311, -120.171
19.431, 66.322, -120.801
19.713, 66.356, -121.308
20.000, 66.418, -121.816
20.291, 66.502, -122.424
20.586, 66.594, -123.186
20.885, 66.678, -124.102
21.189, 66.738, -125.093
21.497, 66.774, -126.037
21.810, 66.793, -126.844
22.127, 66.812, -127.483
22.449, 66.842, -127.989
22.776, 66.892, -128.444
23.107, 66.959, -128.947
23.443, 67.031, -129.553
23.784, 67.096, -130.255
24.130, 67.146, -130.999
24.481, 67.182, -131.722
24.837, 67.209, -132.390
25.198, 67.235, -133.010
25.565, 67.263, -133.612
25.937, 67.292, -134.229
26.314, 67.319, -134.867
26.697, 67.342, -135.507
27.085, 67.364, -136.132
27.479, 67.388, -136.748
27.879, 67.417, -137.384
28.284, 67.444, -138.063
28.696, 67.462, -138.757
29.113, 67.469, -139.390
29.537, 67.476, -139.884
29.966, 67.501, -140.248
30.402, 67.556, -140.605
30.844, 67.634, -141.116
31.293, 67.706, -141.849
31.748, 67.744, -142.696
32.210, 67.743, -143.432
32.678, 67.729, -143.890
33.154, 67.740, -144.111
33.636, 67.794, -144.345
34.125, 67.868, -144.836
34.621, 67.919, -145.600
35.125, 67.921, -146.400
35.636, 67.893, -146.962
36.154, 67.880, -147.238
36.680, 67.911, -147.482
37.214, 67.968, -147.976
37.755, 68.002, -148.727
38.304, 67.991, -149.458
38.861, 67.965, -149.908
39.427, 67.971, -150.147
40.000, 68.014, -150.497
40.582, 68.053, -151.088
41.172, 68.056, -151.703
41.771, 68.045, -152.123
42.379, 68.054, -152.418
42.995, 68.076, -152.769
43.620, 68.095, -153.143
44.255, 68.126, -153.487
44.898, 68.172, -154.002
45.552, 68.186, -154.712
46.214, 68.157, -155.222
46.886, 68.156, -155.394
47.568, 68.208, -155.742
48.260, 68.232, -156.398
48.962, 68.217, -156.833
49.674, 68.240, -157.081
50.397, 68.277, -157.623
51.130, 68.262, -158.170
51.874, 68.260, -158.379
52.628, 68.305, -158.781
53.394, 68.308, -159.469
54.170, 68.276, -159.857
54.958, 68.290, -160.098
55.758, 68.317, -160.612
56.569, 68.312, -161.172
57.391, 68.304, -161.576
58.226, 68.314, -161.963
59.073, 68.322, -162.437
59.932, 68.316, -162.862
60.804, 68.319, -163.207
61.688, 68.320, -163.617
62.586, 68.310, -163.920
63.496, 68.323, -164.242
64.420, 68.317, -164.695
65.357, 68.310, -164.957
66.307, 68.334, -165.398
67.272, 68.316, -165.968
68.250, 68.303, -166.280
69.243, 68.313, -166.726
70.250, 68.300, -167.157
71.272, 68.300, -167.510
72.309, 68.299, -167.934
73.360, 68.295, -168.411
74.427, 68.261, -168.878
75.510, 68.254, -169.195
76.608, 68.224, -169.890
77.723, 68.155, -170.088
78.853, 68.158, -170.436
80.000, 68.094, -170.839
81.164, 68.060, -171.009
82.344, 67.992, -171.290
83.542, 67.932, -171.296
84.757, 67.873, -171.411
85.990, 67.800, -171.428
87.241, 67.751, -171.235
88.510, 67.727, -171.291
89.797, 67.662, -170.935
91.103, 67.699, -170.410
92.428, 67.737, -170.086
93.773, 67.807, -169.738
95.137, 67.894, -169.663
96.520, 67.971, -169.870
97.924, 68.057, -170.205
99.349, 68.087, -171.096
100.794, 68.106, -171.376
102.260, 68.123, -172.150
103.747, 68.122, -172.613
105.256, 68.085, -173.044
106.787, 68.083, -173.510
108.340, 68.001, -173.931
109.916, 67.908, -174.146
111.515, 67.842, -173.761
113.137, 67.775, -173.608
114.783, 67.785, -172.971
116.452, 67.818, -172.759
118.146, 67.909, -172.628
119.865, 67.946, -172.639
121.608, 68.018, -172.830
123.377, 68.087, -172.895
125.171, 68.119, -173.270
126.992, 68.157, -173.467
128.839, 68.192, -173.878
130.713, 68.230, -174.095
132.615, 68.217, -174.609
134.543, 68.228, -174.860
136.500, 68.270, -175.316
138.486, 68.285, -175.782
140.500, 68.300, -176.371
142.544, 68.282, -176.500
144.617, 68.290, -176.790
146.721, 68.291, -177.119
148.855, 68.267, -177.324
151.020, 68.272, -177.811
153.217, 68.254, -177.976
155.445, 68.264, -178.328
157.706, 68.258, -178.671
160.000, 68.241, -179.043
162.327, 68.228, -179.237
164.688, 68.220, -179.580
167.084, 68.205, -179.869
169.514, 68.183, 179.778
171.980, 68.173, 179.530
174.481, 68.148, 179.181
177.019, 68.121, 178.932
179.594, 68.114, 178.620
182.206, 68.081, 178.398
184.856, 68.073, 178.194
187.545, 68.055, 177.915
190.273, 68.012, 177.709
193.041, 68.007, 177.427
195.849, 67.976, 177.343
198.697, 67.956, 177.173
201.587, 67.966, 176.853
204.520, 67.943, 176.773
207.494, 67.907, 176.508
210.512, 67.898, 176.298
213.574, 67.890, 176.130
216.681, 67.874, 175.885
219.833, 67.835, 175.658
223.030, 67.815, 175.464
226.274, 67.797, 175.216
229.565, 67.755, 174.970
232.905, 67.734, 174.757
236.292, 67.705, 174.451
239.729, 67.682, 174.388
243.216, 67.666, 174.196
246.754, 67.652, 174.013
250.343, 67.608, 173.664
253.984, 67.573, 173.433
257.678, 67.551, 173.304
261.426, 67.517, 173.131
265.229, 67.489, 172.690
269.087, 67.437, 172.768
273.001, 67.405, 172.597
276.972, 67.374, 172.499
281.000, 67.321, 172.247
285.088, 67.309, 172.045
289.234, 67.272, 171.947
293.441, 67.237, 171.719
297.710, 67.189, 171.544
302.040, 67.164, 171.394
306.433, 67.117, 171.293
310.890, 67.075, 171.121
315.412, 67.036, 170.990
320.000, 66.982, 170.893
324.655, 66.941, 170.789
329.377, 66.911, 170.804
334.168, 66.849, 170.602
339.028, 66.806, 170.423
343.959, 66.746, 170.382
348.962, 66.719, 170.336
354.038, 66.668, 170.258
359.188, 66.628, 170.195
364.412, 66.580, 170.066
369.713, 66.521, 169.975
375.090, 66.496, 169.893
380.546, 66.425, 169.964
386.081, 66.394, 169.945
391.697, 66.353, 169.888
397.395, 66.311, 169.778
403.175, 66.250, 169.697
409.039, 66.209, 169.743
414.989, 66.150, 169.601
421.025, 66.095, 169.660
427.149, 66.042, 169.576
433.362, 65.994, 169.583
439.665, 65.929, 169.489
446.060, 65.873, 169.493
452.548, 65.801, 169.456
459.131, 65.730, 169.507
465.809, 65.679, 169.392
472.584, 65.589, 169.444
479.458, 65.524, 169.681
486.432, 65.455, 169.705
493.507, 65.409, 169.801
500.686, 65.334, 169.743
507.968, 65.274, 169.802
515.357, 65.183, 170.003
522.853, 65.120, 170.335
530.458, 65.053, 170.312
538.174, 64.965, 170.630
546.002, 64.906, 170.744
553.943, 64.845, 171.055
562.001, 64.769, 171.253
570.175, 64.669, 171.455
578.469, 64.590, 171.885
586.883, 64.572, 172.014
595.419, 64.493, 172.076
604.080, 64.411, 172.444
612.866, 64.363, 172.793
621.780, 64.210, 173.081
630.824, 64.203, 173.349
640.000, 64.123, 173.729
649.309, 64.033, 174.015
658.753, 63.914, 174.283
668.335, 63.801, 174.806
678.056, 63.760, 175.186
687.919, 63.637, 175.747
697.925, 63.532, 176.483
708.076, 63.474, 176.897
718.376, 63.340, 178.009
728.825, 63.255, 178.943
739.426, 63.193, 179.809
750.181, 63.139, -179.179
761.093, 63.129, -177.970
772.163, 63.158, -177.270
783.394, 63.087, -176.526
794.789, 63.048, -175.531
806.349, 63.104, -175.115
818.078, 63.024, -174.233
829.977, 63.033, -173.368
842.050, 63.000, -172.687
854.297, 62.945, -171.848
866.724, 63.007, -170.776
879.330, 62.972, -170.087
892.120, 62.935, -169.158
905.097, 62.904, -167.928
918.262, 62.966, -167.091
931.618, 62.975, -165.972
945.169, 63.038, -165.181
958.917, 63.097, -164.332
972.864, 63.095, -163.356
987.015, 63.156, -162.676
1001.371, 63.159, -161.801
1015.937, 63.223, -160.923
1030.714, 63.222, -159.996
1045.706, 63.316, -159.067
1060.916, 63.351, -158.072
1076.347, 63.469, -157.130
1092.003, 63.548, -156.642
1107.887, 63.599, -155.740
1124.001, 63.670, -154.961
1140.350, 63.740, -154.241
1156.937, 63.824, -153.387
1173.765, 63.916, -152.734
1190.838, 64.008, -152.037
1208.159, 64.091, -151.386
1225.732, 64.158, -150.543
1243.561, 64.265, -149.888
1261.649, 64.375, -149.165
1280.000, 64.445, -148.583
1298.618, 64.562, -147.838
1317.507, 64.674, -147.079
1336.670, 64.834, -146.397
1356.113, 64.972, -146.249
1375.838, 65.052, -145.497
1395.850, 65.171, -145.413
1416.153, 65.306, -144.684
1436.751, 65.392, -144.341
1457.649, 65.513, -143.882
1478.851, 65.621, -143.355
1500.362, 65.745, -142.834
1522.185, 65.881, -142.614
1544.326, 66.018, -142.332
1566.789, 66.103, -141.955
1589.578, 66.263, -141.697
1612.699, 66.334, -141.350
1636.156, 66.474, -141.289
1659.955, 66.574, -140.569
1684.099, 66.728, -140.283
1708.595, 66.853, -139.990
1733.447, 66.972, -139.783
1758.661, 67.129, -139.940
1784.241, 67.212, -139.790
1810.193, 67.302, -139.823
1836.523, 67.378, -139.295
1863.236, 67.481, -138.893
1890.338, 67.610, -138.744
1917.833, 67.751, -138.325
1945.729, 67.857, -138.075
1974.030, 67.977, -137.646
2002.743, 68.090, -137.350
2031.873, 68.245, -136.823
2061.428, 68.335, -136.431
2091.412, 68.578, -135.896
2121.832, 68.798, -135.135
2152.695, 68.950, -134.811
2184.007, 69.197, -134.593
2215.774, 69.502, -134.132
2248.003, 69.807, -134.448
2280.701, 70.151, -135.016
2313.874, 70.399, -136.563
2347.530, 70.535, -137.890
2381.676, 70.581, -138.922
2416.318, 70.655, -139.399
2451.464, 70.712, -139.522
2487.122, 70.862, -139.401
2523.298, 71.016, -139.529
2560.000, 71.238, -139.932
2597.236, 71.451, -140.322
2635.014, 71.637, -140.763
2673.341, 71.836, -141.558
2712.226, 72.040, -142.526
2751.676, 72.216, -143.341
2791.700, 72.391, -144.677
2832.306, 72.550, -145.705
2873.503, 72.695, -146.944
2915.299, 72.782, -148.302
2957.703, 72.884, -149.437
3000.724, 72.981, -150.534
3044.370, 73.058, -151.798
3088.652, 73.178, -152.842
3133.577, 73.280, -154.052
3179.156, 73.336, -155.458
3225.398, 73.425, -156.605
3272.312, 73.521, -157.988
3319.909, 73.606, -159.607
3368.198, 73.628, -161.228
3417.190, 73.638, -162.913
3466.894, 73.640, -164.161
3517.321, 73.664, -165.648
3568.482, 73.667, -167.067
3620.387, 73.703, -168.708
3673.046, 73.760, -170.742
3726.472, 73.723, -173.166
3780.675, 73.617, -175.713
3835.666, 73.494, -177.925
3891.457, 73.317, 179.347
3948.060, 73.056, 176.598
4005.486, 72.698, 174.111
4063.747, 72.267, 172.146
4122.855, 71.826, 170.468
4182.824, 71.397, 168.469
4243.664, 70.830, 165.468
4305.390, 69.761, 162.492
4368.013, 68.279, 162.463
4431.547, 66.595, 167.287
4496.005, 65.400, 178.808
4561.401, 65.199, -167.829
4627.749, 65.936, -157.338
4695.061, 66.962, -150.246
4763.352, 68.017, -146.641
4832.637, 68.998, -145.209
4902.929, 69.798, -145.338
4974.244, 70.500, -146.112
5046.596, 71.045, -147.695
5120.000, 71.491, -149.196
5194.472, 71.899, -150.899
5270.027, 72.211, -153.292
5346.682, 72.399, -155.685
5424.451, 72.495, -157.528
5503.352, 72.575, -159.300
5583.399, 72.595, -160.859
5664.612, 72.586, -162.222
5747.006, 72.538, -163.361
5830.598, 72.449, -164.125
5915.406, 72.389, -164.292
6001.447, 72.301, -164.025
6088.740, 72.303, -163.026
6177.303, 72.444, -161.728
6267.154, 72.739, -160.976
6358.312, 73.055, -161.026
6450.796, 73.345, -161.141
6544.625, 73.761, -161.604
6639.818, 74.132, -162.969
6736.397, 74.455, -164.138
6834.380, 74.886, -165.456
6933.789, 75.389, -167.741
7034.643, 75.866, -171.207
7136.964, 76.238, -175.680
7240.773, 76.472, 179.435
7346.093, 76.591, 174.370
7452.944, 76.629, 169.329
7561.350, 76.631, 164.137
7671.332, 76.574, 158.498
7782.915, 76.443, 152.402
7896.120, 76.211, 145.554
8010.971, 75.783, 137.987
8127.493, 75.123, 130.102
8245.711, 74.215, 122.092
8365.647, 72.995, 113.782
8487.328, 71.349, 105.889
8610.779, 69.212, 98.664
8736.026, 66.499, 92.361
8863.095, 62.048, 87.572
8992.011, 54.046, 97.124
9122.803, 52.312, -156.532
9255.497, 60.850, -142.598
9390.121, 64.875, -148.737
9526.704, 67.001, -157.408
9665.273, 68.130, -165.792
9805.857, 68.655, -173.309
9948.487, 68.738, -179.832
10093.191, 68.462, 175.330
10240.000, 68.043, 172.748
10388.944, 67.655, 171.793
10540.055, 67.294, 171.836
10693.363, 67.009, 173.284
10848.902, 66.992, 176.195
11006.703, 67.466, 178.634
11166.799, 68.328, 177.817
11329.224, 68.978, 172.599
11494.012, 69.247, 164.814
11661.195, 68.830, 155.884
11830.812, 67.883, 149.275
12002.895, 66.768, 144.587
12177.480, 65.399, 141.458
12354.606, 63.839, 140.783
12534.309, 62.080, 143.089
12716.624, 60.379, 152.237
12901.592, 59.859, 163.313
13089.250, 59.716, 173.497
13279.637, 60.299, -176.798
13472.794, 61.414, -171.999
13668.760, 62.126, -173.507
13867.577, 62.696, -167.238
14069.285, 65.039, -173.124
14273.928, 65.466, 168.975
14481.547, 64.031, 150.272
14692.186, 60.396, 139.119
14905.889, 55.466, 144.527
15122.700, 52.527, -174.920
15342.664, 54.763, -153.855
15565.829, 56.287, -143.410
15792.239, 57.542, -135.651
16021.942, 59.084, -126.982
16254.986, 61.568, -121.720
16491.422, 64.363, -126.717
16731.295, 66.320, -140.461
16974.656, 67.020, -159.461
17221.559, 65.921, -178.663
17472.053, 63.050, 171.248
17726.189, 60.065, 178.838
17984.021, 59.793, -161.253
18245.605, 62.402, -157.083
18510.994, 63.562, -171.210
18780.242, 62.293, 175.317
19053.408, 60.140, 174.463
19330.547, 59.284, -177.767
19611.715, 59.446, -173.414
19896.975, 60.259, -173.894
