* Measurement data measured by REW V5.19
* Source: ASIO MOTU M Series, In 1
* Format: 1M Log Swept Sine, 1 sweep at -10.0 dBFS  With no timing reference
* Dated: 30 Apr, 2021 9:01:17 PM
* REW Settings:
*  C-weighting compensation: Off
*  Target level: 75.0 dB
* Note: ; 
* Measurement: Apr 30 21:01:17
* Smoothing: 1/48 octave
* Frequency Step: 1/48 octave
* Start Frequency: 10.1 Hz
*
* Freq(Hz), SPL(dB), Phase(degrees)
10.145, 59.170, 99.859
10.293, 59.248, 99.302
10.443, 59.329, 98.550
10.595, 59.460, 97.568
10.749, 59.600, 96.531
10.905, 59.718, 95.714
11.064, 59.830, 94.953
11.225, 59.952, 94.044
11.388, 60.078, 93.050
11.554, 60.195, 92.047
11.722, 60.305, 91.026
11.892, 60.407, 90.001
12.065, 60.500, 88.974
12.241, 60.586, 87.951
12.419, 60.665, 86.945
12.599, 60.738, 86.000
12.782, 60.806, 85.102
12.968, 60.874, 84.237
13.157, 60.942, 83.407
13.348, 61.012, 82.617
13.543, 61.084, 81.840
13.740, 61.158, 81.070
13.939, 61.233, 80.299
14.142, 61.307, 79.526
14.348, 61.381, 78.753
14.557, 61.453, 77.985
14.768, 61.523, 77.224
14.983, 61.593, 76.482
15.201, 61.663, 75.754
15.422, 61.735, 75.037
15.646, 61.809, 74.322
15.874, 61.885, 73.598
16.105, 61.963, 72.854
16.339, 62.040, 72.086
16.577, 62.115, 71.296
16.818, 62.185, 70.491
17.063, 62.250, 69.686
17.311, 62.311, 68.894
17.563, 62.368, 68.126
17.818, 62.424, 67.387
18.077, 62.480, 66.673
18.340, 62.538, 65.976
18.607, 62.597, 65.285
18.877, 62.658, 64.593
19.152, 62.718, 63.897
19.431, 62.777, 63.201
19.713, 62.834, 62.513
20.000, 62.890, 61.838
20.291, 62.946, 61.177
20.586, 63.003, 60.527
20.885, 63.061, 59.880
21.189, 63.119, 59.225
21.497, 63.177, 58.557
21.810, 63.232, 57.877
22.127, 63.282, 57.194
22.449, 63.327, 56.523
22.776, 63.368, 55.878
23.107, 63.407, 55.267
23.443, 63.446, 54.692
23.784, 63.487, 54.142
24.130, 63.532, 53.601
24.481, 63.580, 53.055
24.837, 63.628, 52.498
25.198, 63.677, 51.930
25.565, 63.725, 51.356
25.937, 63.774, 50.772
26.314, 63.822, 50.171
26.697, 63.868, 49.545
27.085, 63.908, 48.903
27.479, 63.941, 48.274
27.879, 63.970, 47.690
28.284, 64.001, 47.160
28.696, 64.038, 46.654
29.113, 64.082, 46.130
29.537, 64.126, 45.564
29.966, 64.165, 44.978
30.402, 64.199, 44.413
30.844, 64.232, 43.889
31.293, 64.270, 43.381
31.748, 64.309, 42.853
32.210, 64.345, 42.309
32.678, 64.375, 41.788
33.154, 64.404, 41.321
33.636, 64.439, 40.881
34.125, 64.480, 40.409
34.621, 64.517, 39.882
35.125, 64.543, 39.350
35.636, 64.560, 38.883
36.154, 64.583, 38.493
36.680, 64.617, 38.100
37.214, 64.654, 37.626
37.755, 64.679, 37.099
38.304, 64.690, 36.638
38.861, 64.707, 36.304
39.427, 64.747, 35.992
40.000, 64.801, 35.552
40.582, 64.844, 34.985
41.172, 64.869, 34.428
41.771, 64.890, 33.946
42.379, 64.913, 33.485
42.995, 64.930, 33.030
43.620, 64.943, 32.648
44.255, 64.965, 32.304
44.898, 64.989, 31.897
45.552, 64.997, 31.475
46.214, 64.999, 31.166
46.886, 65.016, 30.911
47.568, 65.043, 30.568
48.260, 65.065, 30.170
48.962, 65.087, 29.785
49.674, 65.118, 29.349
50.397, 65.143, 28.834
51.130, 65.157, 28.328
51.874, 65.165, 27.899
52.628, 65.177, 27.544
53.394, 65.195, 27.220
54.170, 65.216, 26.905
54.958, 65.239, 26.594
55.758, 65.265, 26.239
56.569, 65.283, 25.846
57.391, 65.299, 25.470
58.226, 65.317, 25.052
59.073, 65.327, 24.620
59.932, 65.338, 24.245
60.804, 65.351, 23.873
61.688, 65.365, 23.567
62.586, 65.393, 23.241
63.496, 65.405, 22.844
64.420, 65.412, 22.573
65.357, 65.433, 22.230
66.307, 65.440, 21.814
67.272, 65.447, 21.415
68.250, 65.451, 21.018
69.243, 65.475, 20.652
70.250, 65.488, 20.170
71.272, 65.508, 19.964
72.309, 65.574, 19.448
73.360, 65.549, 18.731
74.427, 65.504, 18.535
75.510, 65.490, 18.324
76.608, 65.470, 18.065
77.723, 65.448, 17.731
78.853, 65.418, 17.428
80.000, 65.394, 17.145
81.164, 65.371, 16.906
82.344, 65.346, 16.695
83.542, 65.311, 16.592
84.757, 65.287, 16.582
85.990, 65.262, 16.555
87.241, 65.239, 16.593
88.510, 65.229, 16.672
89.797, 65.243, 16.736
91.103, 65.261, 16.703
92.428, 65.278, 16.720
93.773, 65.305, 16.778
95.137, 65.332, 16.795
96.520, 65.372, 16.927
97.924, 65.423, 16.827
99.349, 65.449, 16.810
100.794, 65.505, 16.754
102.260, 65.560, 16.494
103.747, 65.603, 16.148
105.256, 65.661, 15.839
106.787, 65.717, 15.244
108.340, 65.719, 14.766
109.916, 65.742, 14.554
111.515, 65.775, 14.087
113.137, 65.785, 13.541
114.783, 65.770, 12.921
116.452, 65.734, 12.469
118.146, 65.680, 12.205
119.865, 65.658, 12.206
121.608, 65.588, 11.983
123.377, 65.526, 12.259
125.171, 65.517, 12.528
126.992, 65.549, 12.660
128.839, 65.596, 12.661
130.713, 65.641, 12.555
132.615, 65.672, 12.364
134.543, 65.681, 12.113
136.500, 65.699, 11.966
138.486, 65.732, 11.786
140.500, 65.761, 11.578
142.544, 65.770, 11.349
144.617, 65.773, 11.162
146.721, 65.799, 10.908
148.855, 65.810, 10.610
151.020, 65.824, 10.363
153.217, 65.813, 10.089
155.445, 65.829, 9.929
157.706, 65.863, 9.865
160.000, 65.895, 10.095
162.327, 65.937, 9.936
164.688, 65.874, 9.462
167.084, 65.812, 9.136
169.514, 65.793, 8.881
171.980, 65.805, 8.668
174.481, 65.822, 8.326
177.019, 65.823, 8.004
179.594, 65.828, 7.811
182.206, 65.814, 7.549
184.856, 65.780, 7.486
187.545, 65.784, 7.283
190.273, 65.746, 7.075
193.041, 65.734, 6.823
195.849, 65.717, 6.660
198.697, 65.700, 6.613
201.587, 65.658, 6.689
204.520, 65.639, 6.975
207.494, 65.674, 6.944
210.512, 65.690, 6.727
213.574, 65.705, 6.628
216.681, 65.731, 6.459
219.833, 65.726, 6.299
223.030, 65.709, 6.231
226.274, 65.732, 5.916
229.565, 65.697, 5.466
232.905, 65.683, 5.849
236.292, 65.710, 5.729
239.729, 65.697, 5.481
243.216, 65.689, 5.451
246.754, 65.718, 5.090
250.343, 65.691, 4.987
253.984, 65.672, 4.956
257.678, 65.664, 4.677
261.426, 65.645, 4.647
265.229, 65.621, 4.637
269.087, 65.608, 4.467
273.001, 65.602, 4.306
276.972, 65.587, 4.201
281.000, 65.570, 4.117
285.088, 65.536, 4.025
289.234, 65.518, 3.957
293.441, 65.509, 3.910
297.710, 65.494, 3.919
302.040, 65.472, 3.953
306.433, 65.462, 4.055
310.890, 65.440, 3.945
315.412, 65.410, 3.637
320.000, 65.421, 3.642
324.655, 65.408, 3.550
329.377, 65.383, 3.637
334.168, 65.364, 3.568
339.028, 65.350, 3.619
343.959, 65.342, 3.663
348.962, 65.336, 3.604
354.038, 65.327, 3.539
359.188, 65.299, 3.559
364.412, 65.285, 3.566
369.713, 65.282, 3.430
375.090, 65.264, 3.344
380.546, 65.241, 3.352
386.081, 65.228, 3.254
391.697, 65.189, 3.188
397.395, 65.138, 3.223
403.175, 65.117, 3.347
409.039, 65.092, 3.378
414.989, 65.065, 3.427
421.025, 65.050, 3.469
427.149, 65.019, 3.598
433.362, 64.995, 3.618
439.665, 64.976, 3.764
446.060, 64.974, 3.946
452.548, 64.960, 4.065
459.131, 64.918, 4.205
465.809, 64.910, 4.259
472.584, 64.885, 4.336
479.458, 64.857, 4.459
486.432, 64.845, 4.519
493.507, 64.832, 4.749
500.686, 64.807, 4.878
507.968, 64.791, 4.962
515.357, 64.766, 5.122
522.853, 64.736, 5.297
530.458, 64.709, 5.520
538.174, 64.693, 5.778
546.002, 64.676, 5.981
553.943, 64.672, 6.213
562.001, 64.639, 6.386
570.175, 64.607, 6.709
578.469, 64.611, 7.172
586.883, 64.617, 7.347
595.419, 64.604, 7.614
604.080, 64.615, 7.947
612.866, 64.620, 8.061
621.780, 64.601, 8.274
630.824, 64.602, 8.688
640.000, 64.621, 8.921
649.309, 64.612, 8.991
658.753, 64.603, 9.209
668.335, 64.611, 9.484
678.056, 64.587, 9.647
687.919, 64.576, 10.076
697.925, 64.600, 10.335
708.076, 64.589, 10.565
718.376, 64.583, 10.889
728.825, 64.586, 11.306
739.426, 64.615, 11.639
750.181, 64.622, 11.797
761.093, 64.629, 12.142
772.163, 64.658, 12.385
783.394, 64.651, 12.533
794.789, 64.645, 12.904
806.349, 64.663, 13.208
818.078, 64.655, 13.394
829.977, 64.670, 13.686
842.050, 64.654, 14.024
854.297, 64.648, 14.381
866.724, 64.638, 14.809
879.330, 64.626, 15.381
892.120, 64.643, 16.050
905.097, 64.695, 16.664
918.262, 64.733, 17.207
931.618, 64.814, 17.803
945.169, 64.874, 18.197
958.917, 64.965, 18.419
972.864, 65.020, 18.522
987.015, 65.056, 18.686
1001.371, 65.084, 18.941
1015.937, 65.126, 19.285
1030.714, 65.149, 19.620
1045.706, 65.225, 20.038
1060.916, 65.280, 20.151
1076.347, 65.344, 20.563
1092.003, 65.385, 20.740
1107.887, 65.406, 20.916
1124.001, 65.450, 21.292
1140.350, 65.503, 21.491
1156.937, 65.559, 21.697
1173.765, 65.589, 21.934
1190.838, 65.644, 22.480
1208.159, 65.732, 22.731
1225.732, 65.783, 22.803
1243.561, 65.836, 23.133
1261.649, 65.907, 23.340
1280.000, 65.963, 23.676
1298.618, 66.041, 23.869
1317.507, 66.103, 24.149
1336.670, 66.175, 24.340
1356.113, 66.241, 24.638
1375.838, 66.330, 24.871
1395.850, 66.417, 25.033
1416.153, 66.510, 25.171
1436.751, 66.592, 25.057
1457.649, 66.630, 25.170
1478.851, 66.718, 25.574
1500.362, 66.823, 25.611
1522.185, 66.915, 25.698
1544.326, 67.022, 25.711
1566.789, 67.121, 25.537
1589.578, 67.185, 25.235
1612.699, 67.213, 25.239
1636.156, 67.277, 25.540
1659.955, 67.383, 25.625
1684.099, 67.503, 25.601
1708.595, 67.608, 25.228
1733.447, 67.683, 24.829
1758.661, 67.705, 24.353
1784.241, 67.703, 24.314
1810.193, 67.735, 24.511
1836.523, 67.806, 24.685
1863.236, 67.885, 24.543
1890.338, 67.896, 24.484
1917.833, 67.959, 24.742
1945.729, 67.994, 24.858
1974.030, 68.093, 25.243
2002.743, 68.161, 25.092
2031.873, 68.196, 25.560
2061.428, 68.331, 25.976
2091.412, 68.420, 26.236
2121.832, 68.611, 26.770
2152.695, 68.782, 26.567
2184.007, 68.940, 26.643
2215.774, 69.134, 26.594
2248.003, 69.352, 26.262
2280.701, 69.565, 25.622
2313.874, 69.747, 24.563
2347.530, 69.872, 23.526
2381.676, 69.983, 22.660
2416.318, 70.098, 21.572
2451.464, 70.160, 20.440
2487.122, 70.191, 19.566
2523.298, 70.249, 18.909
2560.000, 70.360, 17.981
2597.236, 70.388, 16.732
2635.014, 70.395, 15.634
2673.341, 70.352, 14.854
2712.226, 70.364, 14.175
2751.676, 70.339, 13.563
2791.700, 70.337, 13.074
2832.306, 70.377, 12.797
2873.503, 70.426, 12.131
2915.299, 70.453, 11.367
2957.703, 70.449, 10.637
3000.724, 70.437, 9.977
3044.370, 70.417, 9.515
3088.652, 70.416, 9.236
3133.577, 70.464, 8.954
3179.156, 70.529, 8.515
3225.398, 70.597, 7.870
3272.312, 70.663, 7.143
3319.909, 70.710, 6.399
3368.198, 70.798, 5.772
3417.190, 70.948, 4.784
3466.894, 71.092, 3.112
3517.321, 71.159, 1.047
3568.482, 71.176, -1.073
3620.387, 71.160, -3.213
3673.046, 71.130, -5.443
3726.472, 71.085, -7.999
3780.675, 70.953, -11.013
3835.666, 70.713, -13.843
3891.457, 70.437, -16.478
3948.060, 70.124, -19.226
4005.486, 69.733, -22.256
4063.747, 69.220, -25.239
4122.855, 68.586, -28.212
4182.824, 67.777, -30.856
4243.664, 66.838, -33.392
4305.390, 65.474, -35.573
4368.013, 63.617, -33.907
4431.547, 61.575, -25.786
4496.005, 60.233, -10.153
4561.401, 60.376, 6.306
4627.749, 61.432, 18.449
4695.061, 62.716, 25.766
4763.352, 64.060, 29.500
4832.637, 65.184, 29.834
4902.929, 65.990, 28.856
4974.244, 66.654, 27.635
5046.596, 67.193, 25.782
5120.000, 67.582, 23.703
5194.472, 67.889, 21.629
5270.027, 68.108, 19.297
5346.682, 68.200, 16.927
5424.451, 68.204, 14.892
5503.352, 68.139, 13.117
5583.399, 68.048, 11.584
5664.612, 67.857, 9.868
5747.006, 67.529, 8.953
5830.598, 67.178, 9.039
5915.406, 66.857, 9.817
6001.447, 66.557, 11.043
6088.740, 66.232, 12.830
6177.303, 65.914, 15.812
6267.154, 65.712, 20.260
6358.312, 65.801, 25.663
6450.796, 66.195, 31.122
6544.625, 66.946, 35.934
6639.818, 67.957, 38.766
6736.397, 69.058, 39.378
6834.380, 70.148, 37.813
6933.789, 71.157, 34.199
7034.643, 71.957, 28.403
7136.964, 72.400, 21.403
7240.773, 72.512, 14.392
7346.093, 72.336, 8.026
7452.944, 71.948, 2.917
7561.350, 71.449, -0.444
7671.332, 71.038, -2.019
7782.915, 70.884, -3.052
7896.120, 70.929, -5.174
8010.971, 70.982, -9.051
8127.493, 70.871, -14.626
8245.711, 70.437, -21.400
8365.647, 69.544, -28.103
8487.328, 68.213, -32.967
8610.779, 66.597, -35.138
8736.026, 64.756, -34.136
8863.095, 62.821, -28.597
8992.011, 61.012, -16.676
9122.803, 60.499, 0.918
9255.497, 61.509, 14.708
9390.121, 62.893, 21.426
9526.704, 64.066, 23.212
9665.273, 64.891, 22.416
9805.857, 65.388, 20.654
9948.487, 65.628, 18.836
10093.191, 65.677, 17.494
10240.000, 65.617, 16.940
10388.944, 65.503, 17.217
10540.055, 65.373, 18.502
10693.363, 65.312, 21.235
10848.902, 65.527, 25.457
11006.703, 66.315, 29.818
11166.799, 67.631, 30.617
11329.224, 68.838, 25.579
11494.012, 69.286, 16.896
11661.195, 69.026, 10.137
11830.812, 68.649, 6.504
12002.895, 68.448, 4.029
12177.480, 68.375, 0.876
12354.606, 68.224, -3.717
12534.309, 67.793, -9.194
12716.624, 67.001, -14.366
12901.592, 65.865, -18.171
13089.250, 64.357, -19.070
13279.637, 62.776, -14.746
13472.794, 61.699, -6.440
13668.760, 61.169, 3.526
13867.577, 61.737, 18.414
14069.285, 64.446, 24.935
14273.928, 66.255, 15.010
14481.547, 66.518, 0.441
14692.186, 65.438, -11.536
14905.889, 63.489, -17.140
15122.700, 61.237, -13.050
15342.664, 59.914, -2.772
15565.829, 59.553, 8.603
15792.239, 60.098, 18.739
16021.942, 61.148, 25.196
16254.986, 62.511, 28.934
16491.422, 64.345, 27.695
16731.295, 65.650, 17.975
16974.656, 65.846, 6.538
17221.559, 65.539, -2.411
17472.053, 65.065, -10.302
17726.189, 64.359, -17.796
17984.021, 63.456, -25.089
18245.605, 62.191, -32.550
18510.994, 60.400, -38.408
18780.242, 58.167, -41.307
19053.408, 55.289, -38.136
19330.547, 52.527, -20.792
19611.715, 52.398, 1.151
19896.975, 53.809, 14.226
