* Measurement data measured by REW V5.19
* Source: ASIO MOTU M Series, In 1
* Format: 1M Log Swept Sine, 1 sweep at -10.0 dBFS  With no timing reference
* Dated: 30 Apr, 2021 9:02:31 PM
* REW Settings:
*  C-weighting compensation: Off
*  Target level: 75.0 dB
* Note: ; 
* Measurement: Apr 30 21:02:31
* Smoothing: 1/48 octave
* Frequency Step: 1/48 octave
* Start Frequency: 10.1 Hz
*
* Freq(Hz), SPL(dB), Phase(degrees)
10.145, 59.811, 96.185
10.293, 59.879, 95.521
10.443, 59.950, 94.633
10.595, 60.058, 93.474
10.749, 60.170, 92.270
10.905, 60.255, 91.364
11.064, 60.331, 90.564
11.225, 60.417, 89.651
11.388, 60.509, 88.691
11.554, 60.597, 87.763
11.722, 60.684, 86.854
11.892, 60.770, 85.948
12.065, 60.855, 85.043
12.241, 60.940, 84.116
12.419, 61.023, 83.177
12.599, 61.102, 82.260
12.782, 61.179, 81.352
12.968, 61.253, 80.436
13.157, 61.325, 79.532
13.348, 61.393, 78.653
13.543, 61.461, 77.790
13.740, 61.526, 76.944
13.939, 61.592, 76.117
14.142, 61.656, 75.307
14.348, 61.721, 74.514
14.557, 61.787, 73.731
14.768, 61.853, 72.956
14.983, 61.919, 72.189
15.201, 61.985, 71.425
15.422, 62.051, 70.662
15.646, 62.116, 69.900
15.874, 62.181, 69.138
16.105, 62.244, 68.376
16.339, 62.307, 67.614
16.577, 62.367, 66.853
16.818, 62.426, 66.096
17.063, 62.483, 65.342
17.311, 62.538, 64.595
17.563, 62.592, 63.855
17.818, 62.645, 63.120
18.077, 62.697, 62.391
18.340, 62.748, 61.665
18.607, 62.797, 60.944
18.877, 62.845, 60.227
19.152, 62.892, 59.517
19.431, 62.937, 58.814
19.713, 62.982, 58.118
20.000, 63.026, 57.428
20.291, 63.069, 56.744
20.586, 63.111, 56.064
20.885, 63.151, 55.392
21.189, 63.191, 54.734
21.497, 63.229, 54.094
21.810, 63.269, 53.472
22.127, 63.311, 52.860
22.449, 63.355, 52.243
22.776, 63.400, 51.610
23.107, 63.443, 50.957
23.443, 63.481, 50.296
23.784, 63.513, 49.650
24.130, 63.541, 49.042
24.481, 63.569, 48.481
24.837, 63.601, 47.956
25.198, 63.638, 47.440
25.565, 63.679, 46.907
25.937, 63.721, 46.342
26.314, 63.759, 45.752
26.697, 63.791, 45.159
27.085, 63.819, 44.583
27.479, 63.844, 44.034
27.879, 63.869, 43.511
28.284, 63.895, 43.002
28.696, 63.922, 42.496
29.113, 63.950, 41.989
29.537, 63.976, 41.482
29.966, 64.001, 40.982
30.402, 64.026, 40.495
30.844, 64.052, 40.015
31.293, 64.079, 39.530
31.748, 64.107, 39.033
32.210, 64.132, 38.530
32.678, 64.156, 38.033
33.154, 64.180, 37.548
33.636, 64.203, 37.068
34.125, 64.226, 36.592
34.621, 64.247, 36.130
35.125, 64.270, 35.686
35.636, 64.294, 35.248
36.154, 64.317, 34.805
36.680, 64.338, 34.367
37.214, 64.356, 33.953
37.755, 64.375, 33.563
38.304, 64.395, 33.187
38.861, 64.416, 32.817
39.427, 64.441, 32.433
40.000, 64.465, 32.007
40.582, 64.483, 31.543
41.172, 64.492, 31.087
41.771, 64.499, 30.664
42.379, 64.507, 30.255
42.995, 64.517, 29.859
43.620, 64.532, 29.473
44.255, 64.552, 29.048
44.898, 64.564, 28.606
45.552, 64.572, 28.258
46.214, 64.598, 27.959
46.886, 64.631, 27.533
47.568, 64.637, 27.082
48.260, 64.636, 26.830
48.962, 64.661, 26.610
49.674, 64.682, 26.223
50.397, 64.677, 25.875
51.130, 64.680, 25.636
51.874, 64.689, 25.302
52.628, 64.681, 24.953
53.394, 64.677, 24.722
54.170, 64.691, 24.460
54.958, 64.707, 24.116
55.758, 64.718, 23.772
56.569, 64.729, 23.450
57.391, 64.741, 23.154
58.226, 64.753, 22.863
59.073, 64.761, 22.599
59.932, 64.771, 22.353
60.804, 64.778, 22.056
61.688, 64.773, 21.780
62.586, 64.773, 21.545
63.496, 64.777, 21.269
64.420, 64.779, 20.963
65.357, 64.778, 20.684
66.307, 64.784, 20.462
67.272, 64.800, 20.201
68.250, 64.804, 19.893
69.243, 64.802, 19.687
70.250, 64.808, 19.426
71.272, 64.793, 19.168
72.309, 64.796, 18.975
73.360, 64.788, 18.508
74.427, 64.736, 18.213
75.510, 64.714, 18.066
76.608, 64.686, 17.822
77.723, 64.653, 17.692
78.853, 64.612, 17.653
80.000, 64.594, 17.847
81.164, 64.604, 17.847
82.344, 64.587, 17.880
83.542, 64.593, 18.005
84.757, 64.595, 18.100
85.990, 64.619, 18.262
87.241, 64.638, 18.257
88.510, 64.654, 18.363
89.797, 64.683, 18.292
91.103, 64.691, 18.220
92.428, 64.715, 18.221
93.773, 64.755, 18.167
95.137, 64.797, 18.153
96.520, 64.855, 18.102
97.924, 64.881, 17.955
99.349, 64.891, 17.932
100.794, 64.916, 17.956
102.260, 64.963, 17.748
103.747, 65.013, 17.494
105.256, 65.069, 17.061
106.787, 65.078, 16.833
108.340, 65.108, 16.858
109.916, 65.141, 16.736
111.515, 65.149, 16.409
113.137, 65.152, 16.105
114.783, 65.164, 15.714
116.452, 65.165, 15.411
118.146, 65.147, 15.382
119.865, 65.168, 15.516
121.608, 65.148, 15.330
123.377, 65.130, 15.316
125.171, 65.145, 15.240
126.992, 65.177, 15.054
128.839, 65.206, 14.926
130.713, 65.233, 14.883
132.615, 65.243, 14.717
134.543, 65.249, 14.601
136.500, 65.271, 14.406
138.486, 65.285, 14.187
140.500, 65.278, 14.015
142.544, 65.276, 13.919
144.617, 65.273, 13.741
146.721, 65.285, 13.693
148.855, 65.302, 13.583
151.020, 65.301, 13.502
153.217, 65.287, 13.412
155.445, 65.310, 13.340
157.706, 65.335, 13.364
160.000, 65.379, 13.709
162.327, 65.419, 13.191
164.688, 65.338, 13.042
167.084, 65.389, 13.091
169.514, 65.425, 12.838
171.980, 65.436, 12.688
174.481, 65.425, 12.516
177.019, 65.437, 12.412
179.594, 65.479, 12.359
182.206, 65.499, 12.158
184.856, 65.470, 11.974
187.545, 65.450, 11.741
190.273, 65.469, 11.456
193.041, 65.419, 11.273
195.849, 65.391, 11.551
198.697, 65.406, 11.676
201.587, 65.443, 11.780
204.520, 65.479, 11.830
207.494, 65.488, 11.659
210.512, 65.487, 11.539
213.574, 65.508, 11.432
216.681, 65.525, 11.270
219.833, 65.531, 11.163
223.030, 65.532, 10.973
226.274, 65.539, 10.855
229.565, 65.544, 11.079
232.905, 65.562, 10.915
236.292, 65.554, 10.555
239.729, 65.543, 10.501
243.216, 65.531, 10.493
246.754, 65.536, 10.309
250.343, 65.551, 10.200
253.984, 65.547, 10.242
257.678, 65.587, 10.084
261.426, 65.580, 9.933
265.229, 65.572, 9.896
269.087, 65.571, 9.887
273.001, 65.565, 9.776
276.972, 65.550, 9.664
281.000, 65.550, 9.610
285.088, 65.551, 9.580
289.234, 65.539, 9.494
293.441, 65.539, 9.518
297.710, 65.545, 9.637
302.040, 65.556, 9.718
306.433, 65.573, 9.710
310.890, 65.563, 9.497
315.412, 65.547, 9.240
320.000, 65.516, 9.071
324.655, 65.478, 9.063
329.377, 65.488, 8.997
334.168, 65.475, 8.864
339.028, 65.455, 8.822
343.959, 65.443, 8.952
348.962, 65.434, 8.941
354.038, 65.422, 8.799
359.188, 65.394, 9.065
364.412, 65.379, 9.147
369.713, 65.374, 9.101
375.090, 65.368, 9.238
380.546, 65.360, 9.281
386.081, 65.358, 9.250
391.697, 65.328, 9.281
397.395, 65.296, 9.389
403.175, 65.291, 9.468
409.039, 65.275, 9.621
414.989, 65.263, 9.707
421.025, 65.256, 9.799
427.149, 65.253, 9.982
433.362, 65.227, 10.046
439.665, 65.224, 10.176
446.060, 65.212, 10.334
452.548, 65.204, 10.531
459.131, 65.179, 10.713
465.809, 65.190, 10.842
472.584, 65.193, 10.940
479.458, 65.196, 11.106
486.432, 65.187, 11.333
493.507, 65.183, 11.499
500.686, 65.168, 11.527
507.968, 65.155, 11.695
515.357, 65.145, 11.980
522.853, 65.140, 12.166
530.458, 65.133, 12.345
538.174, 65.119, 12.549
546.002, 65.112, 12.844
553.943, 65.117, 13.031
562.001, 65.108, 13.169
570.175, 65.081, 13.457
578.469, 65.089, 13.907
586.883, 65.103, 14.142
595.419, 65.101, 14.353
604.080, 65.110, 14.673
612.866, 65.133, 14.903
621.780, 65.117, 15.155
630.824, 65.119, 15.492
640.000, 65.139, 15.768
649.309, 65.143, 15.945
658.753, 65.138, 16.236
668.335, 65.141, 16.539
678.056, 65.133, 16.862
687.919, 65.147, 17.353
697.925, 65.162, 17.739
708.076, 65.176, 18.045
718.376, 65.191, 18.488
728.825, 65.219, 18.849
739.426, 65.244, 19.227
750.181, 65.275, 19.580
761.093, 65.285, 20.070
772.163, 65.331, 20.246
783.394, 65.352, 20.689
794.789, 65.391, 21.140
806.349, 65.448, 21.456
818.078, 65.491, 21.692
829.977, 65.527, 21.981
842.050, 65.554, 22.148
854.297, 65.568, 22.359
866.724, 65.564, 22.719
879.330, 65.576, 23.191
892.120, 65.607, 23.755
905.097, 65.648, 24.272
918.262, 65.698, 24.762
931.618, 65.754, 25.374
945.169, 65.816, 25.895
958.917, 65.897, 26.272
972.864, 65.956, 26.651
987.015, 66.041, 26.986
1001.371, 66.120, 27.396
1015.937, 66.217, 27.692
1030.714, 66.278, 27.901
1045.706, 66.388, 28.271
1060.916, 66.488, 28.246
1076.347, 66.566, 28.303
1092.003, 66.592, 28.545
1107.887, 66.656, 28.781
1124.001, 66.731, 29.024
1140.350, 66.802, 29.203
1156.937, 66.874, 29.287
1173.765, 66.920, 29.385
1190.838, 66.984, 29.863
1208.159, 67.082, 29.983
1225.732, 67.133, 30.057
1243.561, 67.207, 30.328
1261.649, 67.272, 30.502
1280.000, 67.345, 30.816
1298.618, 67.429, 30.969
1317.507, 67.499, 31.230
1336.670, 67.576, 31.384
1356.113, 67.662, 31.685
1375.838, 67.769, 31.846
1395.850, 67.855, 32.034
1416.153, 67.953, 32.121
1436.751, 68.044, 32.134
1457.649, 68.087, 32.216
1478.851, 68.192, 32.767
1500.362, 68.318, 32.835
1522.185, 68.439, 32.992
1544.326, 68.573, 32.954
1566.789, 68.683, 32.741
1589.578, 68.763, 32.437
1612.699, 68.799, 32.394
1636.156, 68.869, 32.699
1659.955, 68.984, 32.891
1684.099, 69.083, 32.997
1708.595, 69.215, 33.044
1733.447, 69.310, 32.932
1758.661, 69.398, 33.054
1784.241, 69.522, 33.320
1810.193, 69.670, 33.352
1836.523, 69.843, 33.308
1863.236, 70.003, 32.745
1890.338, 70.064, 32.296
1917.833, 70.175, 32.279
1945.729, 70.262, 32.001
1974.030, 70.385, 32.044
2002.743, 70.510, 31.614
2031.873, 70.568, 31.515
2061.428, 70.722, 31.618
2091.412, 70.832, 31.354
2121.832, 71.009, 31.450
2152.695, 71.161, 30.813
2184.007, 71.280, 30.498
2215.774, 71.378, 30.278
2248.003, 71.551, 30.495
2280.701, 71.766, 30.082
2313.874, 71.978, 29.589
2347.530, 72.172, 28.797
2381.676, 72.362, 28.258
2416.318, 72.611, 27.086
2451.464, 72.773, 25.795
2487.122, 72.939, 24.355
2523.298, 73.054, 22.887
2560.000, 73.180, 21.344
2597.236, 73.232, 19.667
2635.014, 73.268, 18.241
2673.341, 73.296, 17.037
2712.226, 73.353, 15.696
2751.676, 73.378, 14.300
2791.700, 73.379, 12.903
2832.306, 73.378, 11.563
2873.503, 73.329, 10.317
2915.299, 73.289, 9.289
2957.703, 73.264, 8.484
3000.724, 73.262, 7.536
3044.370, 73.250, 6.605
3088.652, 73.242, 5.770
3133.577, 73.268, 4.879
3179.156, 73.285, 3.764
3225.398, 73.291, 2.710
3272.312, 73.316, 1.550
3319.909, 73.348, 0.240
3368.198, 73.368, -1.349
3417.190, 73.351, -2.995
3466.894, 73.344, -4.699
3517.321, 73.315, -6.789
3568.482, 73.227, -8.974
3620.387, 73.110, -11.271
3673.046, 72.929, -13.753
3726.472, 72.654, -16.151
3780.675, 72.317, -18.174
3835.666, 71.945, -19.933
3891.457, 71.511, -21.184
3948.060, 71.123, -21.883
4005.486, 70.754, -22.736
4063.747, 70.350, -23.581
4122.855, 69.885, -24.193
4182.824, 69.404, -24.425
4243.664, 68.918, -24.618
4305.390, 68.298, -24.910
4368.013, 67.499, -23.971
4431.547, 66.589, -20.918
4496.005, 65.885, -14.673
4561.401, 65.699, -7.419
4627.749, 65.957, -1.127
4695.061, 66.441, 3.057
4763.352, 66.931, 5.556
4832.637, 67.385, 6.852
4902.929, 67.761, 7.475
4974.244, 68.135, 7.606
5046.596, 68.422, 6.840
5120.000, 68.596, 5.979
5194.472, 68.693, 5.138
5270.027, 68.739, 4.599
5346.682, 68.810, 4.203
5424.451, 68.864, 3.393
5503.352, 68.831, 2.577
5583.399, 68.760, 2.122
5664.612, 68.688, 1.806
5747.006, 68.608, 1.589
5830.598, 68.508, 1.298
5915.406, 68.331, 1.132
6001.447, 68.097, 1.682
6088.740, 67.883, 3.042
6177.303, 67.759, 5.259
6267.154, 67.803, 7.724
6358.312, 67.979, 9.947
6450.796, 68.295, 11.777
6544.625, 68.695, 12.549
6639.818, 69.080, 12.410
6736.397, 69.425, 11.694
6834.380, 69.765, 10.602
6933.789, 70.094, 8.818
7034.643, 70.345, 6.197
7136.964, 70.481, 2.945
7240.773, 70.451, -0.735
7346.093, 70.200, -4.216
7452.944, 69.768, -6.563
7561.350, 69.289, -7.364
7671.332, 68.890, -6.828
7782.915, 68.661, -5.418
7896.120, 68.635, -3.892
8010.971, 68.802, -2.941
8127.493, 69.045, -3.134
8245.711, 69.299, -3.998
8365.647, 69.633, -5.506
8487.328, 70.064, -8.427
8610.779, 70.509, -13.668
8736.026, 70.831, -21.900
8863.095, 70.771, -35.533
8992.011, 69.169, -50.372
9122.803, 66.566, -59.008
9255.497, 63.316, -60.324
9390.121, 59.753, -51.946
9526.704, 56.592, -31.254
9665.273, 55.677, -2.196
9805.857, 57.421, 21.437
9948.487, 59.905, 33.689
10093.191, 62.249, 37.489
10240.000, 64.214, 34.930
10388.944, 65.479, 27.452
10540.055, 65.810, 18.228
10693.363, 65.281, 11.387
10848.902, 64.333, 9.901
11006.703, 63.611, 13.201
11166.799, 63.446, 18.756
11329.224, 63.980, 23.521
11494.012, 64.687, 23.374
11661.195, 64.774, 21.442
11830.812, 64.615, 22.820
12002.895, 64.910, 26.350
12177.480, 65.738, 28.077
12354.606, 66.612, 25.607
12534.309, 67.067, 20.495
12716.624, 67.106, 15.254
12901.592, 66.808, 11.141
13089.250, 66.421, 10.091
13279.637, 66.530, 9.976
13472.794, 66.852, 6.682
13668.760, 66.740, 0.550
13867.577, 65.988, -3.302
14069.285, 65.514, -2.738
14273.928, 65.481, -4.849
14481.547, 65.088, -7.208
14692.186, 64.931, -8.206
14905.889, 65.031, -11.958
15122.700, 64.854, -19.542
15342.664, 63.941, -29.023
15565.829, 62.255, -36.590
15792.239, 59.970, -41.568
16021.942, 56.649, -40.420
16254.986, 52.522, -16.605
16491.422, 53.279, 21.233
16731.295, 57.127, 37.140
16974.656, 60.507, 33.987
17221.559, 62.145, 16.678
17472.053, 61.379, 0.753
17726.189, 59.910, -3.121
17984.021, 59.259, -2.444
18245.605, 59.148, -4.390
18510.994, 58.787, -10.024
18780.242, 57.660, -15.444
19053.408, 56.199, -14.540
19330.547, 55.449, -11.937
19611.715, 54.933, -10.112
19896.975, 54.558, -9.504
