* Measurement data measured by REW V5.19
* Source: ASIO MOTU M Series, In 1
* Format: 1M Log Swept Sine, 2 sweeps at -10.0 dBFS  With no timing reference
* Dated: 16 Sep, 2020 4:03:52 PM
* REW Settings:
*  C-weighting compensation: Off
*  Target level: 75.0 dB
* Note: ; 
* Measurement: Sep 16 16:03:52
* Smoothing: None
* Frequency Step: 1/48 octave
* Start Frequency: 10.0 Hz
*
* Freq(Hz), SPL(dB), Phase(degrees)
10.145, 54.632, -63.216
10.293, 54.784, -64.144
10.443, 54.947, -65.034
10.595, 55.111, -65.976
10.749, 55.273, -67.002
10.905, 55.431, -68.098
11.064, 55.578, -69.238
11.225, 55.712, -70.434
11.388, 55.832, -71.619
11.554, 55.937, -72.786
11.722, 56.031, -73.907
11.892, 56.117, -74.948
12.065, 56.198, -75.924
12.241, 56.282, -76.831
12.419, 56.366, -77.685
12.599, 56.456, -78.524
12.782, 56.549, -79.347
12.968, 56.641, -80.183
13.157, 56.731, -81.015
13.348, 56.815, -81.824
13.543, 56.895, -82.589
13.740, 56.973, -83.267
13.939, 57.056, -83.865
14.142, 57.152, -84.361
14.348, 57.267, -84.831
14.557, 57.405, -85.294
14.768, 57.563, -85.867
14.983, 57.737, -86.569
15.201, 57.910, -87.459
15.422, 58.075, -88.494
15.646, 58.220, -89.656
15.874, 58.342, -90.825
16.105, 58.443, -91.963
16.339, 58.532, -92.977
16.577, 58.622, -93.882
16.818, 58.722, -94.687
17.063, 58.841, -95.484
17.311, 58.975, -96.351
17.563, 59.117, -97.340
17.818, 59.252, -98.480
18.077, 59.369, -99.714
18.340, 59.463, -100.985
18.607, 59.532, -102.208
18.877, 59.587, -103.309
19.152, 59.638, -104.280
19.431, 59.693, -105.130
19.713, 59.761, -105.908
20.000, 59.842, -106.685
20.291, 59.933, -107.505
20.586, 60.026, -108.400
20.885, 60.115, -109.377
21.189, 60.190, -110.418
21.497, 60.245, -111.461
21.810, 60.279, -112.425
22.127, 60.302, -113.234
22.449, 60.329, -113.854
22.776, 60.379, -114.338
23.107, 60.462, -114.824
23.443, 60.567, -115.482
23.784, 60.667, -116.380
24.130, 60.732, -117.409
24.481, 60.755, -118.326
24.837, 60.762, -118.911
25.198, 60.802, -119.151
25.565, 60.914, -119.316
25.937, 61.088, -119.808
26.314, 61.271, -120.855
26.697, 61.401, -122.342
27.085, 61.450, -123.892
27.479, 61.440, -125.125
27.879, 61.429, -125.913
28.284, 61.465, -126.462
28.696, 61.552, -127.126
29.113, 61.653, -128.107
29.537, 61.728, -129.335
29.966, 61.767, -130.613
30.402, 61.778, -131.801
30.844, 61.777, -132.858
31.293, 61.772, -133.763
31.748, 61.779, -134.497
32.210, 61.818, -135.128
32.678, 61.894, -135.847
33.154, 61.984, -136.817
33.636, 62.050, -137.984
34.125, 62.080, -139.103
34.621, 62.094, -139.999
35.125, 62.122, -140.701
35.636, 62.172, -141.358
36.154, 62.232, -142.051
36.680, 62.296, -142.809
37.214, 62.356, -143.693
37.755, 62.387, -144.724
38.304, 62.370, -145.765
38.861, 62.315, -146.611
39.427, 62.253, -147.225
40.000, 62.202, -147.723
40.582, 62.162, -148.168
41.172, 62.146, -148.571
41.771, 62.168, -149.070
42.379, 62.217, -149.874
42.995, 62.250, -150.991
43.620, 62.244, -152.162
44.255, 62.221, -153.078
44.898, 62.238, -153.797
45.552, 62.289, -154.800
46.214, 62.271, -156.152
46.886, 62.141, -156.978
47.568, 62.068, -156.780
48.260, 62.165, -156.925
48.962, 62.217, -158.381
49.674, 62.063, -159.860
50.397, 61.884, -160.329
51.130, 61.816, -160.825
51.874, 61.734, -161.898
52.628, 61.627, -162.919
53.394, 61.551, -164.258
54.170, 61.378, -166.063
54.958, 61.089, -167.236
55.758, 60.822, -167.727
56.569, 60.534, -168.162
57.391, 60.147, -167.940
58.226, 59.762, -166.483
59.073, 59.497, -164.224
59.932, 59.340, -161.938
60.804, 59.226, -159.464
61.688, 59.268, -156.704
62.586, 59.456, -154.823
63.496, 59.641, -153.569
64.420, 59.874, -152.592
65.357, 60.115, -152.217
66.307, 60.325, -152.067
67.272, 60.520, -152.039
68.250, 60.721, -152.140
69.243, 60.882, -152.778
70.250, 60.940, -153.170
71.272, 61.034, -153.404
72.309, 61.060, -153.692
73.360, 61.146, -153.299
74.427, 61.291, -153.490
75.510, 61.396, -153.434
76.608, 61.605, -153.417
77.723, 61.825, -154.103
78.853, 61.956, -155.041
80.000, 62.098, -155.667
81.164, 62.203, -156.926
82.344, 62.251, -157.415
83.542, 62.406, -158.621
84.757, 62.385, -159.750
85.990, 62.483, -160.525
87.241, 62.488, -161.776
88.510, 62.513, -162.461
89.797, 62.570, -163.334
91.103, 62.564, -164.852
92.428, 62.449, -165.654
93.773, 62.386, -166.426
95.137, 62.298, -167.231
96.520, 62.204, -167.664
97.924, 62.071, -168.185
99.349, 62.070, -167.383
100.794, 62.041, -168.239
102.260, 61.983, -167.748
103.747, 61.978, -167.844
105.256, 61.973, -167.948
106.787, 62.010, -167.701
108.340, 62.029, -168.260
109.916, 62.059, -168.211
111.515, 62.065, -168.490
113.137, 62.083, -169.046
114.783, 62.115, -169.301
116.452, 62.125, -169.946
118.146, 62.188, -170.214
119.865, 62.028, -170.143
121.608, 62.224, -170.612
123.377, 62.139, -171.085
125.171, 62.130, -171.730
126.992, 62.122, -172.103
128.839, 62.102, -172.601
130.713, 62.089, -172.440
132.615, 62.050, -172.875
134.543, 62.065, -173.505
136.500, 62.167, -173.830
138.486, 62.095, -173.966
140.500, 62.076, -174.353
142.544, 62.072, -174.760
144.617, 62.084, -175.762
146.721, 62.040, -175.580
148.855, 62.089, -175.928
151.020, 62.007, -175.631
153.217, 62.004, -176.866
155.445, 61.895, -177.712
157.706, 61.863, -177.882
160.000, 61.768, -178.371
162.327, 61.738, -178.690
164.688, 61.592, -178.914
167.084, 61.631, -178.592
169.514, 61.587, -178.634
171.980, 61.551, -178.715
174.481, 61.537, -178.261
177.019, 61.509, -178.828
179.594, 61.514, -178.809
182.206, 61.512, -178.961
184.856, 61.500, -179.182
187.545, 61.471, -179.661
190.273, 61.421, 179.931
193.041, 61.392, -179.975
195.849, 61.430, 179.489
198.697, 61.376, 179.134
201.587, 61.362, 178.878
204.520, 61.316, 178.563
207.494, 61.308, 178.176
210.512, 61.120, 178.680
213.574, 61.084, 177.922
216.681, 61.027, 177.467
219.833, 60.996, 177.278
223.030, 60.869, 177.241
226.274, 60.814, 177.158
229.565, 60.749, 177.335
232.905, 60.617, 177.710
236.292, 60.568, 177.379
239.729, 60.530, 177.636
243.216, 60.483, 177.524
246.754, 60.464, 177.322
250.343, 60.409, 177.375
253.984, 60.372, 177.034
257.678, 60.300, 176.995
261.426, 60.204, 176.770
265.229, 60.139, 176.971
269.087, 60.084, 176.553
273.001, 59.928, 176.801
276.972, 59.824, 176.331
281.000, 59.748, 176.854
285.088, 59.630, 177.240
289.234, 59.500, 177.355
293.441, 59.458, 177.799
297.710, 59.334, 177.870
302.040, 59.243, 178.136
306.433, 59.131, 178.790
310.890, 59.058, 178.943
315.412, 59.004, 179.544
320.000, 58.866, 179.878
324.655, 58.746, -179.735
329.377, 58.664, -178.972
334.168, 58.610, -178.598
339.028, 58.511, -177.843
343.959, 58.405, -176.717
348.962, 58.325, -176.095
354.038, 58.290, -175.591
359.188, 58.246, -173.997
364.412, 58.217, -173.409
369.713, 58.155, -172.409
375.090, 58.113, -171.955
380.546, 58.161, -170.831
386.081, 58.071, -170.001
391.697, 58.095, -169.270
397.395, 58.139, -168.400
403.175, 58.056, -167.308
409.039, 58.053, -166.234
414.989, 58.011, -165.460
421.025, 58.031, -164.647
427.149, 58.050, -163.905
433.362, 58.057, -162.778
439.665, 58.099, -161.568
446.060, 58.190, -160.794
452.548, 58.222, -159.598
459.131, 58.285, -158.782
465.809, 58.360, -158.040
472.584, 58.431, -157.205
479.458, 58.500, -156.344
486.432, 58.582, -155.693
493.507, 58.635, -155.074
500.686, 58.722, -154.344
507.968, 58.817, -153.822
515.357, 58.889, -153.144
522.853, 58.963, -152.694
530.458, 58.988, -151.807
538.174, 59.103, -151.340
546.002, 59.199, -150.544
553.943, 59.270, -150.095
562.001, 59.348, -149.379
570.175, 59.441, -148.667
578.469, 59.542, -147.996
586.883, 59.649, -147.463
595.419, 59.777, -146.848
604.080, 59.879, -146.428
612.866, 60.009, -145.948
621.780, 60.121, -145.717
630.824, 60.236, -145.266
640.000, 60.346, -144.934
649.309, 60.463, -144.683
658.753, 60.572, -144.324
668.335, 60.695, -144.162
678.056, 60.805, -143.893
687.919, 60.912, -143.748
697.925, 61.010, -143.636
708.076, 61.109, -143.524
718.376, 61.200, -143.401
728.825, 61.289, -143.165
739.426, 61.369, -142.956
750.181, 61.458, -142.651
761.093, 61.557, -142.323
772.163, 61.665, -142.036
783.394, 61.778, -141.648
794.789, 61.950, -141.201
806.349, 62.119, -141.258
818.078, 62.266, -141.387
829.977, 62.411, -141.542
842.050, 62.554, -141.792
854.297, 62.687, -142.093
866.724, 62.817, -142.498
879.330, 62.956, -142.860
892.120, 63.093, -143.450
905.097, 63.245, -144.209
918.262, 63.380, -145.384
931.618, 63.477, -146.909
945.169, 63.510, -148.858
958.917, 63.441, -151.135
972.864, 63.206, -153.634
987.015, 62.761, -155.697
1001.371, 62.084, -156.400
1015.937, 61.335, -154.657
1030.714, 60.764, -150.278
1045.706, 60.592, -144.770
1060.916, 60.805, -140.045
1076.347, 61.063, -136.837
1092.003, 61.420, -133.872
1107.887, 61.833, -131.855
1124.001, 62.250, -130.712
1140.350, 62.617, -129.879
1156.937, 62.973, -129.564
1173.765, 63.290, -129.375
1190.838, 63.576, -129.534
1208.159, 63.824, -129.812
1225.732, 64.008, -130.013
1243.561, 64.198, -129.979
1261.649, 64.408, -129.982
1280.000, 64.603, -130.121
1298.618, 64.791, -130.271
1317.507, 64.967, -130.451
1336.670, 65.136, -130.601
1356.113, 65.307, -130.703
1375.838, 65.486, -130.852
1395.850, 65.663, -131.105
1416.153, 65.812, -131.336
1436.751, 65.969, -131.398
1457.649, 66.154, -131.495
1478.851, 66.337, -131.714
1500.362, 66.524, -132.018
1522.185, 66.710, -132.440
1544.326, 66.879, -132.883
1566.789, 67.036, -133.379
1589.578, 67.191, -133.751
1612.699, 67.348, -134.180
1636.156, 67.509, -134.588
1659.955, 67.656, -134.969
1684.099, 67.862, -135.312
1708.595, 68.050, -136.196
1733.447, 68.188, -137.102
1758.661, 68.288, -137.620
1784.241, 68.430, -137.907
1810.193, 68.627, -138.417
1836.523, 68.810, -139.233
1863.236, 68.989, -140.105
1890.338, 69.152, -141.083
1917.833, 69.293, -142.127
1945.729, 69.428, -143.219
1974.030, 69.553, -144.317
2002.743, 69.664, -145.506
2031.873, 69.769, -146.618
2061.428, 69.842, -147.790
2091.412, 69.925, -148.887
2121.832, 69.993, -149.995
2152.695, 70.056, -151.241
2184.007, 70.089, -152.366
2215.774, 70.122, -153.384
2248.003, 70.150, -154.255
2280.701, 70.203, -155.005
2313.874, 70.248, -155.923
2347.530, 70.297, -156.693
2381.676, 70.368, -157.551
2416.318, 70.444, -158.483
2451.464, 70.519, -159.518
2487.122, 70.592, -160.655
2523.298, 70.653, -161.872
2560.000, 70.698, -163.177
2597.236, 70.725, -164.497
2635.014, 70.748, -165.824
2673.341, 70.747, -167.254
2712.226, 70.729, -168.651
2751.676, 70.687, -169.994
2791.700, 70.635, -171.239
2832.306, 70.575, -172.428
2873.503, 70.508, -173.620
2915.299, 70.423, -174.709
2957.703, 70.330, -175.684
3000.724, 70.233, -176.529
3044.370, 70.135, -177.263
3088.652, 70.039, -177.833
3133.577, 69.961, -178.273
3179.156, 69.897, -178.634
3225.398, 69.862, -178.872
3272.312, 69.860, -179.055
3319.909, 69.913, -179.321
3368.198, 70.015, -179.898
3417.190, 70.137, 179.044
3466.894, 70.237, 177.420
3517.321, 70.275, 175.431
3568.482, 70.243, 173.232
3620.387, 70.126, 171.159
3673.046, 69.958, 169.385
3726.472, 69.786, 167.980
3780.675, 69.630, 166.630
3835.666, 69.463, 165.267
3891.457, 69.289, 163.975
3948.060, 69.108, 162.695
4005.486, 68.924, 161.397
4063.747, 68.716, 160.051
4122.855, 68.483, 158.711
4182.824, 68.251, 157.416
4243.664, 67.947, 155.901
4305.390, 67.590, 154.721
4368.013, 67.207, 153.866
4431.547, 66.803, 153.297
4496.005, 66.393, 153.073
4561.401, 65.984, 153.159
4627.749, 65.587, 153.512
4695.061, 65.194, 154.092
4763.352, 64.812, 154.903
4832.637, 64.440, 156.000
4902.929, 64.083, 157.314
4974.244, 63.742, 158.931
5046.596, 63.412, 160.940
5120.000, 63.139, 163.450
5194.472, 62.957, 166.342
5270.027, 62.877, 169.217
5346.682, 62.876, 172.122
5424.451, 62.974, 175.002
5503.352, 63.182, 177.579
5583.399, 63.491, 179.711
5664.612, 63.899, -178.892
5747.006, 64.371, -178.497
5830.598, 64.835, -179.295
5915.406, 65.209, 178.865
6001.447, 65.473, 176.465
6088.740, 65.625, 173.789
6177.303, 65.712, 170.953
6267.154, 65.715, 167.901
6358.312, 65.642, 164.637
6450.796, 65.473, 161.182
6544.625, 65.188, 157.649
6639.818, 64.777, 154.222
6736.397, 64.228, 151.250
6834.380, 63.582, 148.905
6933.789, 62.863, 147.279
7034.643, 62.085, 146.406
7136.964, 61.281, 146.478
7240.773, 60.495, 147.551
7346.093, 59.767, 149.425
7452.944, 59.141, 151.822
7561.350, 58.544, 154.386
7671.332, 57.966, 157.448
7782.915, 57.427, 161.423
7896.120, 57.020, 166.353
8010.971, 56.845, 172.008
8127.493, 56.965, 177.610
8245.711, 57.414, -177.741
8365.647, 58.069, -175.474
8487.328, 58.692, -175.750
8610.779, 59.161, -177.394
8736.026, 59.833, 177.405
8863.095, 59.316, 171.547
8992.011, 58.696, 167.806
9122.803, 57.867, 165.640
9255.497, 56.978, 165.561
9390.121, 56.173, 167.192
9526.704, 55.540, 169.825
9665.273, 55.092, 172.792
9805.857, 54.820, 175.388
9948.487, 54.605, 176.767
10093.191, 54.295, 177.226
10240.000, 53.777, 177.540
10388.944, 53.057, 178.676
10540.055, 52.209, -178.249
10693.363, 51.414, -172.695
10848.902, 50.939, -164.059
11006.703, 51.285, -153.886
11166.799, 52.681, -148.158
11329.224, 53.965, -151.721
11494.012, 54.169, -158.963
11661.195, 53.616, -163.574
11830.812, 52.967, -165.321
12002.895, 52.368, -166.382
12177.480, 51.587, -167.047
12354.606, 50.606, -166.269
12534.309, 49.606, -161.975
12716.624, 49.072, -154.798
12901.592, 49.311, -148.369
13089.250, 49.808, -146.278
13279.637, 50.063, -147.225
13472.794, 50.038, -148.680
13668.760, 49.857, -150.218
13867.577, 49.658, -151.626
14069.285, 49.468, -154.208
14273.928, 49.126, -158.705
14481.547, 48.419, -164.480
14692.186, 47.187, -170.182
14905.889, 45.535, -174.709
15122.700, 43.467, -178.346
15342.664, 40.505, -179.811
15565.829, 36.791, -172.263
15792.239, 33.204, -150.527
16021.942, 32.383, -115.461
16254.986, 34.295, -92.801
16491.422, 36.370, -82.191
16731.295, 38.109, -76.420
16974.656, 39.801, -75.098
17221.559, 41.585, -79.465
17472.053, 42.347, -93.495
17726.189, 41.125, -106.453
17984.021, 39.480, -111.087
18245.605, 38.012, -114.012
18510.994, 36.365, -117.269
18780.242, 34.539, -120.133
19053.408, 32.432, -126.064
19330.547, 28.315, -144.497
19611.715, 14.452, 148.044
19896.975, 24.180, 15.102
