* Measurement data measured by REW V5.19
* Source: ASIO MOTU M Series, In 1
* Format: 1M Log Swept Sine, 2 sweeps at -10.0 dBFS  With no timing reference
* Dated: 16 Sep, 2020 3:20:26 PM
* REW Settings:
*  C-weighting compensation: Off
*  Target level: 75.0 dB
* Note: ; 
* Measurement: Sep 16 15:20:26
* Smoothing: None
* Frequency Step: 1/48 octave
* Start Frequency: 10.0 Hz
*
* Freq(Hz), SPL(dB), Phase(degrees)
10.145, 61.408, -62.081
10.293, 61.581, -63.056
10.443, 61.757, -64.117
10.595, 61.925, -65.261
10.749, 62.073, -66.466
10.905, 62.204, -67.720
11.064, 62.315, -68.894
11.225, 62.403, -70.008
11.388, 62.484, -70.968
11.554, 62.556, -71.734
11.722, 62.637, -72.345
11.892, 62.739, -72.773
12.065, 62.863, -73.111
12.241, 63.024, -73.458
12.419, 63.212, -73.853
12.599, 63.421, -74.454
12.782, 63.643, -75.241
12.968, 63.853, -76.269
13.157, 64.048, -77.489
13.348, 64.206, -78.819
13.543, 64.332, -80.192
13.740, 64.419, -81.475
13.939, 64.483, -82.609
14.142, 64.529, -83.499
14.348, 64.583, -84.180
14.557, 64.654, -84.636
14.768, 64.759, -85.040
14.983, 64.897, -85.436
15.201, 65.060, -86.006
15.422, 65.234, -86.756
15.646, 65.404, -87.740
15.874, 65.550, -88.855
16.105, 65.670, -90.054
16.339, 65.760, -91.204
16.577, 65.834, -92.242
16.818, 65.899, -93.131
17.063, 65.974, -93.887
17.311, 66.062, -94.582
17.563, 66.167, -95.270
17.818, 66.282, -96.030
18.077, 66.397, -96.854
18.340, 66.507, -97.724
18.607, 66.608, -98.590
18.877, 66.705, -99.406
19.152, 66.805, -100.175
19.431, 66.912, -100.915
19.713, 67.028, -101.671
20.000, 67.146, -102.470
20.291, 67.262, -103.297
20.586, 67.374, -104.124
20.885, 67.486, -104.921
21.189, 67.605, -105.691
21.497, 67.736, -106.504
21.810, 67.873, -107.431
22.127, 68.000, -108.497
22.449, 68.102, -109.649
22.776, 68.172, -110.760
23.107, 68.219, -111.678
23.443, 68.269, -112.327
23.784, 68.353, -112.787
24.130, 68.482, -113.277
24.481, 68.642, -114.008
24.837, 68.797, -115.049
25.198, 68.919, -116.290
25.565, 68.998, -117.526
25.937, 69.053, -118.592
26.314, 69.110, -119.464
26.697, 69.186, -120.262
27.085, 69.278, -121.133
27.479, 69.366, -122.126
27.879, 69.436, -123.173
28.284, 69.487, -124.161
28.696, 69.530, -125.027
29.113, 69.578, -125.780
29.537, 69.637, -126.446
29.966, 69.712, -127.045
30.402, 69.816, -127.633
30.844, 69.953, -128.347
31.293, 70.107, -129.358
31.748, 70.243, -130.710
32.210, 70.329, -132.237
32.678, 70.364, -133.681
33.154, 70.376, -134.896
33.636, 70.389, -135.938
34.125, 70.405, -136.918
34.621, 70.409, -137.807
35.125, 70.414, -138.463
35.636, 70.455, -138.909
36.154, 70.549, -139.434
36.680, 70.661, -140.313
37.214, 70.737, -141.455
37.755, 70.767, -142.497
38.304, 70.794, -143.240
38.861, 70.859, -143.848
39.427, 70.961, -144.596
40.000, 71.072, -145.582
40.582, 71.170, -146.759
41.172, 71.245, -148.057
41.771, 71.288, -149.352
42.379, 71.311, -150.469
42.995, 71.351, -151.401
43.620, 71.423, -152.367
44.255, 71.506, -153.555
44.898, 71.571, -154.931
45.552, 71.606, -156.384
46.214, 71.609, -157.800
46.886, 71.589, -159.005
47.568, 71.589, -159.952
48.260, 71.633, -160.926
48.962, 71.686, -162.172
49.674, 71.706, -163.517
50.397, 71.709, -164.703
51.130, 71.726, -165.791
51.874, 71.751, -166.956
52.628, 71.761, -168.196
53.394, 71.751, -169.364
54.170, 71.748, -170.406
54.958, 71.767, -171.585
55.758, 71.759, -173.020
56.569, 71.710, -174.328
57.391, 71.683, -175.505
58.226, 71.663, -176.877
59.073, 71.623, -178.272
59.932, 71.585, -179.671
60.804, 71.536, 178.907
61.688, 71.489, 177.509
62.586, 71.420, 176.056
63.496, 71.348, 174.852
64.420, 71.305, 173.420
65.357, 71.186, 171.949
66.307, 71.091, 170.915
67.272, 71.007, 169.542
68.250, 70.884, 168.402
69.243, 70.795, 167.159
70.250, 70.653, 165.902
71.272, 70.527, 164.673
72.309, 70.319, 163.423
73.360, 70.142, 162.794
74.427, 69.990, 161.761
75.510, 69.798, 160.987
76.608, 69.645, 160.112
77.723, 69.444, 159.384
78.853, 69.323, 158.962
80.000, 69.200, 158.104
81.164, 69.079, 157.546
82.344, 68.951, 156.441
83.542, 68.729, 155.786
84.757, 68.504, 155.111
85.990, 68.230, 155.239
87.241, 68.031, 155.102
88.510, 67.749, 155.994
89.797, 67.707, 156.950
91.103, 67.631, 157.965
92.428, 67.809, 158.957
93.773, 67.999, 158.565
95.137, 68.192, 157.386
96.520, 68.271, 155.288
97.924, 68.242, 152.711
99.349, 68.009, 150.490
100.794, 67.760, 148.566
102.260, 67.318, 147.663
103.747, 67.000, 147.456
105.256, 66.629, 147.948
106.787, 66.384, 148.641
108.340, 66.246, 149.559
109.916, 66.091, 150.436
111.515, 66.070, 151.532
113.137, 66.143, 152.618
114.783, 66.226, 152.908
116.452, 66.238, 152.565
118.146, 66.242, 152.222
119.865, 66.261, 152.243
121.608, 66.316, 151.257
123.377, 66.333, 150.110
125.171, 66.233, 149.017
126.992, 66.238, 147.844
128.839, 66.223, 146.611
130.713, 66.276, 146.285
132.615, 66.011, 144.394
134.543, 66.007, 143.869
136.500, 65.817, 142.228
138.486, 65.762, 141.261
140.500, 65.584, 139.399
142.544, 65.428, 138.231
144.617, 65.051, 135.989
146.721, 64.805, 134.664
148.855, 64.516, 133.905
151.020, 64.128, 132.577
153.217, 63.834, 131.490
155.445, 63.425, 130.547
157.706, 63.007, 129.970
160.000, 62.511, 129.872
162.327, 62.162, 129.881
164.688, 61.571, 128.935
167.084, 60.963, 130.732
169.514, 60.641, 131.457
171.980, 60.042, 132.379
174.481, 59.599, 134.292
177.019, 59.170, 136.070
179.594, 58.671, 137.626
182.206, 58.350, 140.714
184.856, 58.009, 142.500
187.545, 57.589, 146.543
190.273, 57.169, 148.536
193.041, 56.941, 152.577
195.849, 57.118, 155.223
198.697, 56.587, 161.846
201.587, 56.713, 163.295
204.520, 56.536, 165.750
207.494, 57.082, 169.667
210.512, 56.921, 174.026
213.574, 57.176, 175.872
216.681, 57.351, 179.210
219.833, 57.556, -179.263
223.030, 57.821, -177.370
226.274, 58.020, -174.934
229.565, 58.298, -173.654
232.905, 58.429, -172.098
236.292, 58.757, -170.907
239.729, 58.927, -170.159
243.216, 59.133, -169.247
246.754, 59.371, -168.402
250.343, 59.585, -167.728
253.984, 59.782, -167.233
257.678, 59.975, -166.686
261.426, 60.144, -166.109
265.229, 60.337, -165.761
269.087, 60.527, -165.305
273.001, 60.710, -165.243
276.972, 60.893, -165.174
281.000, 61.051, -165.186
285.088, 61.188, -165.338
289.234, 61.317, -165.489
293.441, 61.440, -165.498
297.710, 61.545, -165.651
302.040, 61.629, -165.784
306.433, 61.721, -165.906
310.890, 61.800, -165.999
315.412, 61.883, -166.118
320.000, 61.957, -166.246
324.655, 62.022, -166.316
329.377, 62.082, -166.432
334.168, 62.142, -166.429
339.028, 62.191, -166.677
343.959, 62.246, -166.716
348.962, 62.305, -166.761
354.038, 62.347, -166.946
359.188, 62.398, -166.967
364.412, 62.446, -167.203
369.713, 62.488, -167.160
375.090, 62.517, -167.332
380.546, 62.560, -167.330
386.081, 62.580, -167.457
391.697, 62.617, -167.449
397.395, 62.644, -167.636
403.175, 62.662, -167.620
409.039, 62.671, -167.837
414.989, 62.691, -167.879
421.025, 62.698, -167.961
427.149, 62.705, -167.970
433.362, 62.710, -168.015
439.665, 62.709, -168.012
446.060, 62.715, -168.006
452.548, 62.709, -167.965
459.131, 62.705, -167.934
465.809, 62.697, -167.849
472.584, 62.710, -167.754
479.458, 62.680, -167.755
486.432, 62.676, -167.494
493.507, 62.685, -167.380
500.686, 62.676, -167.317
507.968, 62.678, -167.192
515.357, 62.669, -167.135
522.853, 62.662, -166.849
530.458, 62.646, -166.585
538.174, 62.642, -166.467
546.002, 62.633, -166.204
553.943, 62.631, -165.923
562.001, 62.626, -165.640
570.175, 62.608, -165.442
578.469, 62.607, -165.077
586.883, 62.603, -164.709
595.419, 62.606, -164.370
604.080, 62.593, -164.030
612.866, 62.596, -163.622
621.780, 62.591, -163.210
630.824, 62.600, -162.735
640.000, 62.598, -162.309
649.309, 62.611, -161.815
658.753, 62.623, -161.284
668.335, 62.652, -160.736
678.056, 62.664, -160.214
687.919, 62.696, -159.646
697.925, 62.725, -159.053
708.076, 62.774, -158.489
718.376, 62.831, -157.873
728.825, 62.881, -157.331
739.426, 62.948, -156.758
750.181, 63.021, -156.223
761.093, 63.095, -155.741
772.163, 63.182, -155.249
783.394, 63.283, -154.779
794.789, 63.373, -154.390
806.349, 63.475, -154.041
818.078, 63.576, -153.754
829.977, 63.679, -153.419
842.050, 63.804, -153.214
854.297, 63.918, -153.088
866.724, 64.020, -152.882
879.330, 64.182, -152.780
892.120, 64.327, -152.967
905.097, 64.475, -153.282
918.262, 64.599, -153.804
931.618, 64.713, -154.646
945.169, 64.764, -155.455
958.917, 64.786, -156.323
972.864, 64.783, -157.176
987.015, 64.729, -157.957
1001.371, 64.650, -158.576
1015.937, 64.551, -159.031
1030.714, 64.422, -159.233
1045.706, 64.286, -159.174
1060.916, 64.150, -158.816
1076.347, 64.030, -158.260
1092.003, 63.926, -157.431
1107.887, 63.848, -156.497
1124.001, 63.790, -155.350
1140.350, 63.775, -154.239
1156.937, 63.783, -153.017
1173.765, 63.832, -151.876
1190.838, 63.902, -150.759
1208.159, 63.991, -149.755
1225.732, 64.090, -148.850
1243.561, 64.198, -148.019
1261.649, 64.309, -147.311
1280.000, 64.427, -146.630
1298.618, 64.558, -146.010
1317.507, 64.699, -145.464
1336.670, 64.850, -145.010
1356.113, 64.997, -144.760
1375.838, 65.144, -144.630
1395.850, 65.264, -144.765
1416.153, 65.344, -144.946
1436.751, 65.385, -145.022
1457.649, 65.406, -144.904
1478.851, 65.414, -144.503
1500.362, 65.441, -143.809
1522.185, 65.486, -142.996
1544.326, 65.563, -142.088
1566.789, 65.676, -141.099
1589.578, 65.821, -140.305
1612.699, 65.977, -139.563
1636.156, 66.160, -138.835
1659.955, 66.334, -138.311
1684.099, 66.526, -137.829
1708.595, 66.705, -137.385
1733.447, 66.912, -137.036
1758.661, 67.107, -136.791
1784.241, 67.322, -136.528
1810.193, 67.526, -136.350
1836.523, 67.746, -136.231
1863.236, 67.957, -136.179
1890.338, 68.164, -136.104
1917.833, 68.387, -136.008
1945.729, 68.631, -135.975
1974.030, 68.893, -135.925
2002.743, 69.182, -136.002
2031.873, 69.491, -136.350
2061.428, 69.816, -136.914
2091.412, 70.140, -137.772
2121.832, 70.461, -138.905
2152.695, 70.759, -140.274
2184.007, 71.034, -141.864
2215.774, 71.285, -143.617
2248.003, 71.509, -145.495
2280.701, 71.709, -147.541
2313.874, 71.878, -149.711
2347.530, 72.001, -152.042
2381.676, 72.085, -154.317
2416.318, 72.120, -156.517
2451.464, 72.140, -158.563
2487.122, 72.157, -160.510
2523.298, 72.168, -162.531
2560.000, 72.155, -164.562
2597.236, 72.123, -166.599
2635.014, 72.071, -168.604
2673.341, 72.001, -170.611
2712.226, 71.905, -172.594
2751.676, 71.788, -174.518
2791.700, 71.650, -176.361
2832.306, 71.495, -178.084
2873.503, 71.343, -179.748
2915.299, 71.188, 178.492
2957.703, 71.014, 176.640
3000.724, 70.808, 174.722
3044.370, 70.566, 172.765
3088.652, 70.287, 170.824
3133.577, 69.968, 168.852
3179.156, 69.598, 166.815
3225.398, 69.158, 164.792
3272.312, 68.622, 162.876
3319.909, 67.994, 161.217
3368.198, 67.261, 159.980
3417.190, 66.432, 159.315
3466.894, 65.507, 159.293
3517.321, 64.444, 160.023
3568.482, 63.201, 161.893
3620.387, 61.706, 165.951
3673.046, 60.035, 174.239
3726.472, 58.629, -171.093
3780.675, 58.320, -150.856
3835.666, 59.507, -132.261
3891.457, 61.450, -120.449
3948.060, 63.454, -114.359
4005.486, 65.227, -111.828
4063.747, 66.830, -111.309
4122.855, 68.264, -112.463
4182.824, 69.526, -114.944
4243.664, 70.604, -118.345
4305.390, 71.514, -122.219
4368.013, 72.280, -126.713
4431.547, 72.882, -131.401
4496.005, 73.343, -136.172
4561.401, 73.679, -140.860
4627.749, 73.911, -145.314
4695.061, 74.048, -149.659
4763.352, 74.099, -153.577
4832.637, 74.096, -157.043
4902.929, 74.072, -160.091
4974.244, 74.047, -162.862
5046.596, 74.023, -165.454
5120.000, 74.007, -167.922
5194.472, 74.014, -170.429
5270.027, 74.016, -173.269
5346.682, 73.969, -176.299
5424.451, 73.876, -179.459
5503.352, 73.730, 177.183
5583.399, 73.492, 173.600
5664.612, 73.108, 169.908
5747.006, 72.512, 166.590
5830.598, 71.670, 164.658
5915.406, 70.701, 165.739
6001.447, 70.027, 170.504
6088.740, 70.041, 176.233
6177.303, 70.547, 179.279
6267.154, 71.077, 179.214
6358.312, 71.427, 177.517
6450.796, 71.600, 175.271
6544.625, 71.646, 172.996
6639.818, 71.609, 170.879
6736.397, 71.521, 168.983
6834.380, 71.400, 167.324
6933.789, 71.272, 165.908
7034.643, 71.155, 164.618
7136.964, 71.044, 163.324
7240.773, 70.929, 162.095
7346.093, 70.828, 160.964
7452.944, 70.760, 159.872
7561.350, 70.742, 158.663
7671.332, 70.783, 157.122
7782.915, 70.876, 154.936
7896.120, 70.994, 151.779
8010.971, 71.080, 147.312
8127.493, 71.045, 141.337
8245.711, 70.764, 133.826
8365.647, 70.084, 125.264
8487.328, 68.887, 116.732
8610.779, 67.139, 109.844
8736.026, 65.109, 105.106
8863.095, 62.184, 103.790
8992.011, 58.838, 110.725
9122.803, 55.778, 132.148
9255.497, 55.835, 163.240
9390.121, 58.240, 179.358
9526.704, 60.269, -177.505
9665.273, 61.448, -179.447
9805.857, 61.892, 177.536
9948.487, 61.828, 175.627
10093.191, 61.521, 175.834
10240.000, 61.196, 178.152
10388.944, 61.020, -177.892
10540.055, 61.079, -173.161
10693.363, 61.377, -168.191
10848.902, 61.963, -163.233
11006.703, 62.946, -159.115
11166.799, 64.447, -157.824
11329.224, 66.058, -162.478
11494.012, 67.155, -173.178
11661.195, 67.229, 174.108
11830.812, 66.511, 163.494
12002.895, 65.383, 155.867
12177.480, 64.029, 151.248
12354.606, 62.657, 149.546
12534.309, 61.415, 149.657
12716.624, 60.181, 150.452
12901.592, 58.803, 153.148
13089.250, 57.502, 159.269
13279.637, 56.657, 168.374
13472.794, 56.468, 178.225
13668.760, 56.891, -173.563
13867.577, 57.745, -168.994
14069.285, 58.611, -169.459
14273.928, 59.048, -173.899
14481.547, 58.807, 179.211
14692.186, 57.569, 171.783
14905.889, 54.918, 168.334
15122.700, 50.724, -178.316
15342.664, 50.112, -133.799
15565.829, 54.485, -113.718
15792.239, 57.845, -113.195
16021.942, 60.110, -118.148
16254.986, 61.808, -124.171
16491.422, 63.487, -132.729
16731.295, 64.568, -147.626
16974.656, 64.317, -163.384
17221.559, 63.253, -175.084
17472.053, 61.757, 178.497
17726.189, 60.498, 176.070
17984.021, 59.447, 175.607
18245.605, 58.761, 176.602
18510.994, 58.489, 175.748
18780.242, 57.970, 172.272
19053.408, 57.180, 169.233
19330.547, 56.191, 167.273
19611.715, 55.300, 167.082
19896.975, 54.550, 166.235
