* Measurement data measured by REW V5.19
* Source: ASIO MOTU M Series, In 1
* Format: 1M Log Swept Sine, 2 sweeps at -10.0 dBFS  With no timing reference
* Dated: 16 Sep, 2020 3:28:30 PM
* REW Settings:
*  C-weighting compensation: Off
*  Target level: 75.0 dB
* Note: ; 
* Measurement: Sep 16 15:28:30
* Smoothing: None
* Frequency Step: 1/48 octave
* Start Frequency: 10.0 Hz
*
* Freq(Hz), SPL(dB), Phase(degrees)
10.145, 54.837, -73.069
10.293, 54.925, -74.074
10.443, 55.015, -74.873
10.595, 55.112, -75.616
10.749, 55.225, -76.335
10.905, 55.348, -77.031
11.064, 55.479, -77.796
11.225, 55.620, -78.621
11.388, 55.756, -79.523
11.554, 55.886, -80.527
11.722, 56.004, -81.572
11.892, 56.102, -82.648
12.065, 56.183, -83.707
12.241, 56.247, -84.682
12.419, 56.297, -85.570
12.599, 56.344, -86.312
12.782, 56.390, -86.931
12.968, 56.449, -87.442
13.157, 56.520, -87.875
13.348, 56.612, -88.307
13.543, 56.718, -88.762
13.740, 56.837, -89.312
13.939, 56.961, -89.953
14.142, 57.083, -90.711
14.348, 57.197, -91.548
14.557, 57.300, -92.456
14.768, 57.389, -93.375
14.983, 57.465, -94.291
15.201, 57.531, -95.153
15.422, 57.591, -95.949
15.646, 57.649, -96.656
15.874, 57.713, -97.281
16.105, 57.788, -97.836
16.339, 57.881, -98.358
16.577, 57.992, -98.914
16.818, 58.121, -99.545
17.063, 58.257, -100.325
17.311, 58.390, -101.254
17.563, 58.508, -102.323
17.818, 58.598, -103.456
18.077, 58.658, -104.533
18.340, 58.695, -105.470
18.607, 58.720, -106.171
18.877, 58.761, -106.644
19.152, 58.829, -106.987
19.431, 58.932, -107.323
19.713, 59.062, -107.819
20.000, 59.193, -108.551
20.291, 59.303, -109.463
20.586, 59.377, -110.446
20.885, 59.414, -111.343
21.189, 59.428, -112.016
21.497, 59.446, -112.443
21.810, 59.488, -112.714
22.127, 59.559, -112.964
22.449, 59.652, -113.311
22.776, 59.753, -113.809
23.107, 59.847, -114.441
23.443, 59.931, -115.153
23.784, 60.002, -115.910
24.130, 60.061, -116.693
24.481, 60.105, -117.468
24.837, 60.136, -118.175
25.198, 60.164, -118.753
25.565, 60.206, -119.211
25.937, 60.274, -119.660
26.314, 60.361, -120.244
26.697, 60.442, -121.016
27.085, 60.494, -121.861
27.479, 60.520, -122.574
27.879, 60.547, -123.040
28.284, 60.608, -123.369
28.696, 60.706, -123.817
29.113, 60.804, -124.532
29.537, 60.865, -125.381
29.966, 60.890, -126.080
30.402, 60.914, -126.497
30.844, 60.971, -126.790
31.293, 61.052, -127.205
31.748, 61.119, -127.757
32.210, 61.166, -128.217
32.678, 61.226, -128.484
33.154, 61.325, -128.791
33.636, 61.433, -129.410
34.125, 61.494, -130.197
34.621, 61.514, -130.748
35.125, 61.562, -130.987
35.636, 61.667, -131.414
36.154, 61.754, -132.379
36.680, 61.737, -133.444
37.214, 61.651, -133.871
37.755, 61.630, -133.645
38.304, 61.717, -133.580
38.861, 61.809, -134.126
39.427, 61.833, -134.810
40.000, 61.846, -135.177
40.582, 61.909, -135.543
41.172, 61.970, -136.279
41.771, 61.977, -137.044
42.379, 61.979, -137.466
42.995, 62.025, -137.833
43.620, 62.076, -138.364
44.255, 62.116, -138.798
44.898, 62.190, -139.190
45.552, 62.264, -139.919
46.214, 62.263, -140.630
46.886, 62.260, -140.774
47.568, 62.336, -141.029
48.260, 62.345, -141.834
48.962, 62.245, -141.869
49.674, 62.310, -140.964
50.397, 62.558, -141.412
51.130, 62.608, -143.274
51.874, 62.455, -144.009
52.628, 62.481, -143.712
53.394, 62.617, -144.697
54.170, 62.560, -146.125
54.958, 62.471, -146.297
55.758, 62.551, -146.375
56.569, 62.623, -147.267
57.391, 62.603, -147.996
58.226, 62.590, -148.342
59.073, 62.589, -148.680
59.932, 62.579, -149.029
60.804, 62.551, -149.429
61.688, 62.499, -149.757
62.586, 62.444, -150.074
63.496, 62.352, -150.337
64.420, 62.269, -150.127
65.357, 62.249, -149.881
66.307, 62.226, -149.642
67.272, 62.232, -149.163
68.250, 62.257, -148.658
69.243, 62.335, -147.947
70.250, 62.473, -147.752
71.272, 62.567, -147.816
72.309, 62.696, -148.036
73.360, 62.768, -148.676
74.427, 62.860, -148.753
75.510, 63.016, -149.703
76.608, 63.013, -150.201
77.723, 63.204, -150.895
78.853, 63.039, -152.594
80.000, 62.967, -151.366
81.164, 63.029, -152.212
82.344, 62.911, -151.625
83.542, 63.021, -151.667
84.757, 62.991, -151.701
85.990, 63.056, -151.413
87.241, 63.148, -151.459
88.510, 63.191, -151.731
89.797, 63.259, -151.726
91.103, 63.330, -152.227
92.428, 63.376, -152.435
93.773, 63.447, -153.042
95.137, 63.471, -153.117
96.520, 63.528, -153.533
97.924, 63.588, -153.543
99.349, 63.606, -154.054
100.794, 63.715, -154.287
102.260, 63.695, -155.063
103.747, 63.761, -155.284
105.256, 63.770, -155.576
106.787, 63.846, -155.836
108.340, 63.862, -156.343
109.916, 63.881, -156.581
111.515, 63.915, -156.825
113.137, 63.958, -157.363
114.783, 63.965, -157.429
116.452, 64.015, -157.855
118.146, 64.013, -158.074
119.865, 64.121, -158.838
121.608, 63.992, -158.962
123.377, 64.134, -159.379
125.171, 64.089, -159.487
126.992, 64.110, -160.075
128.839, 64.172, -160.360
130.713, 64.118, -160.698
132.615, 64.186, -161.033
134.543, 64.209, -161.366
136.500, 64.194, -161.536
138.486, 64.227, -161.621
140.500, 64.228, -162.336
142.544, 64.240, -162.406
144.617, 64.234, -163.103
146.721, 64.283, -163.082
148.855, 64.264, -163.127
151.020, 64.245, -163.431
153.217, 64.220, -164.060
155.445, 64.234, -164.251
157.706, 64.243, -164.866
160.000, 64.291, -164.937
162.327, 64.342, -164.995
164.688, 64.304, -165.010
167.084, 64.321, -165.440
169.514, 64.322, -165.393
171.980, 64.298, -165.581
174.481, 64.301, -166.300
177.019, 64.396, -166.313
179.594, 64.377, -165.623
182.206, 64.110, -166.290
184.856, 64.262, -168.423
187.545, 64.577, -166.982
190.273, 64.306, -166.185
193.041, 64.329, -166.044
195.849, 64.128, -168.591
198.697, 64.118, -166.183
201.587, 64.635, -167.084
204.520, 64.565, -170.678
207.494, 64.462, -169.600
210.512, 64.331, -168.589
213.574, 64.257, -169.318
216.681, 64.342, -169.424
219.833, 64.311, -169.644
223.030, 64.263, -169.642
226.274, 64.390, -170.088
229.565, 64.282, -170.513
232.905, 64.285, -170.214
236.292, 64.296, -170.684
239.729, 64.285, -170.806
243.216, 64.292, -171.196
246.754, 64.229, -171.166
250.343, 64.277, -171.074
253.984, 64.193, -172.519
257.678, 64.022, -171.076
261.426, 64.176, -171.257
265.229, 64.092, -172.519
269.087, 63.980, -172.392
273.001, 64.054, -172.308
276.972, 64.169, -172.753
281.000, 64.201, -172.394
285.088, 64.141, -172.474
289.234, 64.200, -172.555
293.441, 64.144, -171.779
297.710, 64.032, -172.900
302.040, 64.128, -172.965
306.433, 64.064, -172.730
310.890, 64.081, -172.887
315.412, 64.014, -172.702
320.000, 64.078, -173.433
324.655, 64.036, -172.912
329.377, 64.080, -172.994
334.168, 63.997, -173.217
339.028, 63.981, -173.055
343.959, 63.990, -173.182
348.962, 63.970, -173.493
354.038, 64.085, -173.506
359.188, 64.023, -173.558
364.412, 63.958, -173.659
369.713, 63.927, -173.804
375.090, 63.886, -173.697
380.546, 63.885, -174.092
386.081, 63.879, -174.118
391.697, 63.915, -174.253
397.395, 63.872, -174.254
403.175, 63.883, -174.563
409.039, 63.827, -174.146
414.989, 63.731, -175.020
421.025, 63.671, -174.400
427.149, 63.648, -174.744
433.362, 63.647, -174.635
439.665, 63.552, -174.795
446.060, 63.435, -174.644
452.548, 63.375, -174.530
459.131, 63.280, -173.419
465.809, 63.265, -172.979
472.584, 63.222, -172.668
479.458, 63.297, -172.064
486.432, 63.404, -171.207
493.507, 63.490, -171.770
500.686, 63.632, -171.468
507.968, 63.515, -171.168
515.357, 63.524, -170.836
522.853, 63.606, -170.921
530.458, 63.662, -170.293
538.174, 63.480, -170.485
546.002, 63.541, -171.861
553.943, 63.501, -171.175
562.001, 63.533, -170.499
570.175, 63.550, -171.591
578.469, 63.570, -171.518
586.883, 63.313, -172.213
595.419, 63.311, -170.217
604.080, 63.437, -170.785
612.866, 63.401, -170.509
621.780, 63.383, -170.864
630.824, 63.251, -169.933
640.000, 63.349, -169.276
649.309, 63.320, -169.900
658.753, 63.309, -169.801
668.335, 63.409, -169.032
678.056, 63.439, -167.990
687.919, 63.257, -168.691
697.925, 63.303, -167.673
708.076, 63.218, -167.601
718.376, 63.281, -167.545
728.825, 63.171, -167.192
739.426, 63.256, -166.619
750.181, 63.320, -166.530
761.093, 63.280, -165.785
772.163, 63.385, -165.857
783.394, 63.414, -165.944
794.789, 63.390, -165.344
806.349, 63.475, -165.457
818.078, 63.421, -165.850
829.977, 63.486, -165.176
842.050, 63.455, -164.954
854.297, 63.367, -164.940
866.724, 63.377, -164.129
879.330, 63.443, -164.376
892.120, 63.243, -164.060
905.097, 63.415, -163.670
918.262, 63.444, -163.348
931.618, 63.403, -163.208
945.169, 63.339, -162.760
958.917, 63.393, -161.880
972.864, 63.471, -161.309
987.015, 63.494, -160.658
1001.371, 63.628, -160.581
1015.937, 63.602, -160.597
1030.714, 63.726, -161.095
1045.706, 63.709, -161.115
1060.916, 63.715, -161.117
1076.347, 63.593, -160.452
1092.003, 63.668, -159.682
1107.887, 63.750, -160.381
1124.001, 63.708, -159.547
1140.350, 63.615, -160.235
1156.937, 63.617, -158.982
1173.765, 63.585, -159.514
1190.838, 63.464, -158.712
1208.159, 63.506, -158.201
1225.732, 63.441, -158.082
1243.561, 63.421, -157.225
1261.649, 63.305, -155.851
1280.000, 63.329, -154.828
1298.618, 63.279, -154.056
1317.507, 63.414, -152.703
1336.670, 63.729, -151.434
1356.113, 63.666, -151.487
1375.838, 63.578, -149.277
1395.850, 63.673, -149.263
1416.153, 63.779, -146.662
1436.751, 63.789, -146.597
1457.649, 63.903, -145.882
1478.851, 63.990, -144.027
1500.362, 64.201, -143.278
1522.185, 64.394, -142.688
1544.326, 64.682, -142.045
1566.789, 64.753, -141.184
1589.578, 64.993, -141.062
1612.699, 65.113, -140.373
1636.156, 65.440, -140.813
1659.955, 65.531, -140.115
1684.099, 65.824, -139.919
1708.595, 65.871, -140.541
1733.447, 66.076, -140.346
1758.661, 66.242, -140.506
1784.241, 66.333, -140.784
1810.193, 66.527, -141.048
1836.523, 66.634, -140.563
1863.236, 66.768, -141.100
1890.338, 66.881, -140.959
1917.833, 66.973, -141.112
1945.729, 67.120, -141.068
1974.030, 67.208, -141.366
2002.743, 67.308, -141.017
2031.873, 67.420, -140.971
2061.428, 67.541, -141.186
2091.412, 67.713, -140.775
2121.832, 67.842, -140.188
2152.695, 67.947, -140.297
2184.007, 68.166, -140.605
2215.774, 68.339, -140.228
2248.003, 68.486, -140.328
2280.701, 68.673, -139.746
2313.874, 68.964, -140.305
2347.530, 69.126, -141.392
2381.676, 69.321, -141.727
2416.318, 69.482, -141.489
2451.464, 69.675, -141.863
2487.122, 69.967, -142.433
2523.298, 70.218, -142.903
2560.000, 70.452, -143.743
2597.236, 70.679, -145.037
2635.014, 70.832, -146.131
2673.341, 71.044, -147.414
2712.226, 71.206, -148.806
2751.676, 71.374, -150.518
2791.700, 71.484, -151.925
2832.306, 71.607, -153.176
2873.503, 71.786, -154.696
2915.299, 71.869, -156.862
2957.703, 71.939, -158.250
3000.724, 71.974, -160.114
3044.370, 72.085, -161.676
3088.652, 72.076, -163.383
3133.577, 72.108, -165.260
3179.156, 72.127, -167.306
3225.398, 72.105, -169.014
3272.312, 72.052, -170.890
3319.909, 71.953, -172.846
3368.198, 71.841, -174.531
3417.190, 71.703, -176.279
3466.894, 71.579, -177.472
3517.321, 71.465, -179.196
3568.482, 71.328, 179.412
3620.387, 71.101, 178.179
3673.046, 70.983, 176.662
3726.472, 70.786, 175.014
3780.675, 70.438, 173.354
3835.666, 70.081, 172.247
3891.457, 69.652, 171.712
3948.060, 69.377, 172.146
4005.486, 69.111, 172.182
4063.747, 68.861, 171.830
4122.855, 68.459, 171.306
4182.824, 67.996, 172.309
4243.664, 67.609, 173.240
4305.390, 67.074, 175.939
4368.013, 66.787, 178.694
4431.547, 66.598, -177.651
4496.005, 66.659, -174.528
4561.401, 66.706, -172.779
4627.749, 66.639, -170.504
4695.061, 66.675, -167.073
4763.352, 66.814, -163.757
4832.637, 67.080, -161.030
4902.929, 67.397, -158.832
4974.244, 67.595, -155.920
5046.596, 68.103, -152.623
5120.000, 68.724, -149.762
5194.472, 69.451, -148.064
5270.027, 70.341, -147.215
5346.682, 71.313, -147.797
5424.451, 72.298, -149.941
5503.352, 73.269, -153.749
5583.399, 74.021, -159.441
5664.612, 74.556, -166.031
5747.006, 74.855, -172.872
5830.598, 74.960, -179.899
5915.406, 74.858, 173.395
6001.447, 74.593, 166.943
6088.740, 74.149, 161.075
6177.303, 73.581, 155.978
6267.154, 72.907, 151.808
6358.312, 72.179, 148.606
6450.796, 71.434, 146.368
6544.625, 70.672, 144.891
6639.818, 69.912, 144.272
6736.397, 69.187, 144.524
6834.380, 68.508, 145.540
6933.789, 67.902, 147.310
7034.643, 67.386, 149.919
7136.964, 67.033, 153.108
7240.773, 66.870, 156.642
7346.093, 66.919, 159.899
7452.944, 67.155, 162.514
7561.350, 67.543, 163.773
7671.332, 67.963, 163.847
7782.915, 68.463, 162.351
7896.120, 68.815, 159.079
8010.971, 69.007, 154.859
8127.493, 69.013, 149.721
8245.711, 68.758, 144.045
8365.647, 68.218, 138.388
8487.328, 67.369, 133.604
8610.779, 66.307, 130.839
8736.026, 65.370, 128.330
8863.095, 63.936, 129.068
8992.011, 62.849, 132.319
9122.803, 62.018, 136.428
9255.497, 61.379, 141.149
9390.121, 60.976, 145.477
9526.704, 60.614, 149.420
9665.273, 60.309, 153.477
9805.857, 60.068, 157.878
9948.487, 59.989, 162.564
10093.191, 60.038, 166.911
10240.000, 60.191, 171.218
10388.944, 60.529, 175.665
10540.055, 61.170, 179.325
10693.363, 62.122, -179.286
10848.902, 63.147, 178.085
11006.703, 63.755, 171.353
11166.799, 63.638, 163.517
11329.224, 62.928, 158.270
11494.012, 62.134, 156.261
11661.195, 61.462, 155.925
11830.812, 60.953, 156.319
12002.895, 60.577, 156.405
12177.480, 60.140, 156.612
12354.606, 59.776, 157.275
12534.309, 59.666, 157.784
12716.624, 59.498, 155.772
12901.592, 59.107, 152.870
13089.250, 58.330, 150.225
13279.637, 57.424, 149.179
13472.794, 56.425, 149.587
13668.760, 55.508, 151.358
13867.577, 54.713, 153.982
14069.285, 54.262, 157.199
14273.928, 53.934, 157.757
14481.547, 53.442, 155.522
14692.186, 52.408, 150.953
14905.889, 50.533, 145.744
15122.700, 47.427, 141.619
15342.664, 41.737, 142.192
15565.829, 29.427, -136.060
15792.239, 43.091, -77.541
16021.942, 48.724, -80.077
16254.986, 51.901, -84.756
16491.422, 54.307, -88.929
16731.295, 56.579, -95.186
16974.656, 58.458, -105.602
17221.559, 59.725, -120.149
17472.053, 59.706, -136.905
17726.189, 58.470, -150.076
17984.021, 56.696, -155.322
18245.605, 55.266, -153.994
18510.994, 54.539, -149.607
18780.242, 54.546, -146.152
19053.408, 54.846, -146.460
19330.547, 54.887, -149.881
19611.715, 54.535, -153.547
19896.975, 54.139, -156.478
