* Measurement data measured by REW V5.19
* Source: ASIO MOTU M Series, In 1
* Format: 1M Log Swept Sine, 2 sweeps at -10.0 dBFS  With no timing reference
* Dated: 16 Sep, 2020 3:25:31 PM
* REW Settings:
*  C-weighting compensation: Off
*  Target level: 75.0 dB
* Note: ; 
* Measurement: Sep 16 15:25:31
* Smoothing: None
* Frequency Step: 1/48 octave
* Start Frequency: 10.0 Hz
*
* Freq(Hz), SPL(dB), Phase(degrees)
10.145, 57.994, -74.697
10.293, 58.124, -75.067
10.443, 58.317, -75.570
10.595, 58.529, -76.284
10.749, 58.743, -77.310
10.905, 58.959, -78.604
11.064, 59.146, -80.091
11.225, 59.306, -81.809
11.388, 59.430, -83.558
11.554, 59.508, -85.337
11.722, 59.555, -87.003
11.892, 59.567, -88.449
12.065, 59.563, -89.666
12.241, 59.563, -90.544
12.419, 59.576, -91.158
12.599, 59.634, -91.574
12.782, 59.732, -91.870
12.968, 59.881, -92.289
13.157, 60.067, -92.852
13.348, 60.268, -93.756
13.543, 60.469, -94.939
13.740, 60.637, -96.414
13.939, 60.764, -98.025
14.142, 60.833, -99.681
14.348, 60.854, -101.159
14.557, 60.827, -102.367
14.768, 60.791, -103.151
14.983, 60.757, -103.512
15.201, 60.773, -103.522
15.422, 60.843, -103.382
15.646, 60.985, -103.274
15.874, 61.166, -103.474
16.105, 61.371, -104.028
16.339, 61.556, -104.985
16.577, 61.701, -106.169
16.818, 61.793, -107.479
17.063, 61.834, -108.665
17.311, 61.844, -109.634
17.563, 61.841, -110.324
17.818, 61.857, -110.783
18.077, 61.901, -111.183
18.340, 61.969, -111.637
18.607, 62.046, -112.280
18.877, 62.103, -113.074
19.152, 62.130, -113.892
19.431, 62.125, -114.591
19.713, 62.107, -115.001
20.000, 62.114, -115.114
20.291, 62.172, -115.094
20.586, 62.288, -115.162
20.885, 62.445, -115.558
21.189, 62.602, -116.396
21.497, 62.717, -117.544
21.810, 62.776, -118.749
22.127, 62.788, -119.752
22.449, 62.791, -120.403
22.776, 62.827, -120.755
23.107, 62.925, -121.079
23.443, 63.071, -121.723
23.784, 63.214, -122.863
24.130, 63.296, -124.376
24.481, 63.289, -125.908
24.837, 63.207, -127.052
25.198, 63.105, -127.562
25.565, 63.055, -127.535
25.937, 63.092, -127.392
26.314, 63.193, -127.585
26.697, 63.290, -128.270
27.085, 63.327, -129.222
27.479, 63.294, -130.031
27.879, 63.231, -130.382
28.284, 63.198, -130.259
28.696, 63.236, -129.943
29.113, 63.340, -129.779
29.537, 63.479, -129.943
29.966, 63.622, -130.431
30.402, 63.753, -131.182
30.844, 63.857, -132.138
31.293, 63.924, -133.201
31.748, 63.949, -134.211
32.210, 63.950, -135.035
32.678, 63.948, -135.670
33.154, 63.950, -136.192
33.636, 63.953, -136.618
34.125, 63.964, -136.901
34.621, 64.005, -137.114
35.125, 64.072, -137.503
35.636, 64.119, -138.161
36.154, 64.113, -138.789
36.680, 64.093, -139.007
37.214, 64.141, -138.984
37.755, 64.251, -139.379
38.304, 64.321, -140.381
38.861, 64.289, -141.322
39.427, 64.235, -141.578
40.000, 64.273, -141.566
40.582, 64.375, -142.006
41.172, 64.428, -142.845
41.771, 64.428, -143.455
42.379, 64.454, -143.765
42.995, 64.506, -144.203
43.620, 64.533, -144.667
44.255, 64.569, -144.890
44.898, 64.646, -145.314
45.552, 64.668, -146.115
46.214, 64.605, -146.525
46.886, 64.598, -146.334
47.568, 64.674, -146.615
48.260, 64.666, -147.424
48.962, 64.592, -147.684
49.674, 64.607, -147.663
50.397, 64.650, -148.238
51.130, 64.622, -148.837
51.874, 64.627, -149.052
52.628, 64.685, -149.578
53.394, 64.695, -150.346
54.170, 64.676, -150.798
54.958, 64.688, -151.020
55.758, 64.736, -151.311
56.569, 64.778, -151.956
57.391, 64.741, -152.670
58.226, 64.672, -152.962
59.073, 64.624, -153.086
59.932, 64.595, -153.154
60.804, 64.595, -153.503
61.688, 64.514, -154.119
62.586, 64.395, -154.026
63.496, 64.360, -153.819
64.420, 64.288, -153.704
65.357, 64.255, -152.952
66.307, 64.311, -152.555
67.272, 64.294, -152.323
68.250, 64.308, -151.418
69.243, 64.431, -150.781
70.250, 64.533, -150.531
71.272, 64.665, -150.194
72.309, 64.819, -150.368
73.360, 64.915, -150.610
74.427, 65.035, -150.710
75.510, 65.158, -151.143
76.608, 65.232, -151.583
77.723, 65.322, -151.933
78.853, 65.383, -152.543
80.000, 65.427, -152.948
81.164, 65.467, -153.521
82.344, 65.499, -153.972
83.542, 65.515, -154.612
84.757, 65.513, -155.079
85.990, 65.468, -155.411
87.241, 65.499, -155.248
88.510, 65.503, -155.585
89.797, 65.539, -155.202
91.103, 65.630, -155.478
92.428, 65.675, -155.638
93.773, 65.751, -155.867
95.137, 65.812, -156.403
96.520, 65.830, -156.629
97.924, 65.902, -156.933
99.349, 65.968, -157.414
100.794, 65.993, -158.070
102.260, 65.997, -158.492
103.747, 66.064, -158.692
105.256, 66.079, -159.423
106.787, 66.116, -159.612
108.340, 66.141, -160.177
109.916, 66.134, -160.535
111.515, 66.142, -160.985
113.137, 66.140, -161.236
114.783, 66.167, -161.581
116.452, 66.149, -162.011
118.146, 66.169, -162.036
119.865, 66.202, -162.437
121.608, 66.171, -162.778
123.377, 66.193, -163.162
125.171, 66.170, -163.373
126.992, 66.172, -163.844
128.839, 66.176, -163.796
130.713, 66.176, -164.147
132.615, 66.165, -164.099
134.543, 66.215, -164.435
136.500, 66.240, -164.652
138.486, 66.244, -164.836
140.500, 66.245, -165.071
142.544, 66.285, -165.413
144.617, 66.269, -165.531
146.721, 66.299, -165.833
148.855, 66.307, -166.143
151.020, 66.311, -166.434
153.217, 66.341, -166.547
155.445, 66.338, -166.812
157.706, 66.342, -166.945
160.000, 66.312, -167.424
162.327, 66.370, -167.593
164.688, 66.424, -167.822
167.084, 66.570, -167.678
169.514, 66.427, -168.673
171.980, 66.259, -168.243
174.481, 66.324, -168.591
177.019, 66.393, -168.725
179.594, 66.415, -168.940
182.206, 66.403, -169.182
184.856, 66.396, -169.733
187.545, 66.361, -170.152
190.273, 66.341, -170.278
193.041, 66.313, -170.165
195.849, 66.306, -170.205
198.697, 66.314, -170.079
201.587, 66.366, -170.290
204.520, 66.392, -170.782
207.494, 66.412, -170.861
210.512, 66.420, -171.030
213.574, 66.386, -171.197
216.681, 66.385, -171.505
219.833, 66.379, -172.165
223.030, 66.445, -172.259
226.274, 66.448, -171.876
229.565, 66.370, -172.333
232.905, 66.363, -172.765
236.292, 66.405, -172.700
239.729, 66.373, -172.990
243.216, 66.347, -173.191
246.754, 66.395, -173.337
250.343, 66.323, -173.793
253.984, 66.317, -173.679
257.678, 66.334, -173.952
261.426, 66.292, -174.356
265.229, 66.254, -174.145
269.087, 66.382, -174.117
273.001, 66.353, -175.417
276.972, 66.288, -175.024
281.000, 66.312, -174.821
285.088, 66.283, -174.966
289.234, 66.251, -175.269
293.441, 66.243, -175.157
297.710, 66.249, -175.170
302.040, 66.187, -175.516
306.433, 66.197, -175.942
310.890, 66.198, -175.944
315.412, 66.201, -176.055
320.000, 66.162, -175.777
324.655, 66.076, -176.160
329.377, 66.137, -176.274
334.168, 66.092, -176.267
339.028, 66.073, -176.445
343.959, 66.078, -176.087
348.962, 66.123, -176.789
354.038, 66.088, -176.926
359.188, 66.125, -177.289
364.412, 66.046, -176.996
369.713, 66.055, -176.785
375.090, 66.001, -176.541
380.546, 65.912, -176.859
386.081, 65.879, -177.045
391.697, 65.873, -177.357
397.395, 65.874, -177.477
403.175, 65.827, -177.008
409.039, 65.795, -177.871
414.989, 65.786, -177.587
421.025, 65.758, -177.619
427.149, 65.703, -177.564
433.362, 65.683, -177.499
439.665, 65.646, -177.323
446.060, 65.599, -176.818
452.548, 65.595, -176.610
459.131, 65.531, -176.660
465.809, 65.552, -177.032
472.584, 65.546, -176.783
479.458, 65.580, -176.625
486.432, 65.523, -176.287
493.507, 65.594, -175.759
500.686, 65.477, -176.339
507.968, 65.546, -176.351
515.357, 65.444, -176.078
522.853, 65.455, -176.505
530.458, 65.514, -176.042
538.174, 65.498, -176.258
546.002, 65.514, -176.002
553.943, 65.438, -176.522
562.001, 65.376, -176.401
570.175, 65.281, -176.499
578.469, 65.288, -175.954
586.883, 65.305, -176.022
595.419, 65.207, -175.855
604.080, 65.197, -175.106
612.866, 65.227, -174.993
621.780, 65.205, -174.822
630.824, 65.228, -174.900
640.000, 65.247, -174.644
649.309, 65.182, -174.744
658.753, 65.112, -174.859
668.335, 65.020, -174.692
678.056, 64.992, -174.216
687.919, 64.902, -173.652
697.925, 64.909, -172.828
708.076, 64.957, -172.444
718.376, 64.961, -171.734
728.825, 65.011, -171.452
739.426, 65.020, -171.150
750.181, 65.025, -170.711
761.093, 64.907, -170.291
772.163, 65.170, -170.085
783.394, 65.192, -169.603
794.789, 65.267, -169.437
806.349, 65.394, -169.529
818.078, 65.416, -169.917
829.977, 65.520, -169.729
842.050, 65.569, -170.710
854.297, 65.500, -171.227
866.724, 65.442, -170.722
879.330, 65.453, -171.544
892.120, 65.334, -172.001
905.097, 65.306, -171.811
918.262, 65.218, -171.555
931.618, 65.167, -171.534
945.169, 65.142, -171.729
958.917, 65.212, -171.221
972.864, 65.114, -171.889
987.015, 65.002, -170.434
1001.371, 65.012, -170.820
1015.937, 64.835, -171.281
1030.714, 64.749, -170.718
1045.706, 64.715, -170.279
1060.916, 64.550, -170.102
1076.347, 64.398, -168.904
1092.003, 64.531, -168.180
1107.887, 64.395, -167.095
1124.001, 64.351, -166.718
1140.350, 64.197, -166.354
1156.937, 63.972, -163.651
1173.765, 64.179, -163.861
1190.838, 64.115, -162.968
1208.159, 64.145, -161.713
1225.732, 64.196, -160.590
1243.561, 64.123, -159.146
1261.649, 64.185, -157.452
1280.000, 64.260, -156.493
1298.618, 64.245, -155.918
1317.507, 64.322, -154.322
1336.670, 64.444, -152.996
1356.113, 64.664, -152.801
1375.838, 64.790, -151.190
1395.850, 64.840, -151.001
1416.153, 64.947, -149.095
1436.751, 65.117, -148.323
1457.649, 65.358, -147.910
1478.851, 65.390, -146.717
1500.362, 65.631, -146.030
1522.185, 65.804, -146.278
1544.326, 66.113, -145.043
1566.789, 66.115, -145.225
1589.578, 66.204, -144.801
1612.699, 66.456, -144.419
1636.156, 66.627, -144.532
1659.955, 66.733, -143.323
1684.099, 67.020, -143.581
1708.595, 67.178, -143.569
1733.447, 67.375, -143.593
1758.661, 67.535, -144.041
1784.241, 67.661, -144.012
1810.193, 67.787, -144.689
1836.523, 67.986, -144.472
1863.236, 68.146, -144.865
1890.338, 68.277, -145.194
1917.833, 68.423, -145.611
1945.729, 68.569, -145.824
1974.030, 68.654, -146.562
2002.743, 68.728, -146.599
2031.873, 68.791, -146.955
2061.428, 68.804, -147.156
2091.412, 68.945, -147.047
2121.832, 69.085, -146.762
2152.695, 69.144, -146.902
2184.007, 69.303, -147.088
2215.774, 69.413, -147.463
2248.003, 69.458, -147.630
2280.701, 69.604, -147.470
2313.874, 69.716, -147.246
2347.530, 69.867, -147.619
2381.676, 70.031, -147.584
2416.318, 70.155, -147.669
2451.464, 70.373, -147.410
2487.122, 70.573, -147.694
2523.298, 70.795, -148.348
2560.000, 71.007, -148.838
2597.236, 71.248, -149.587
2635.014, 71.447, -150.441
2673.341, 71.686, -151.801
2712.226, 71.828, -152.911
2751.676, 72.015, -154.600
2791.700, 72.156, -156.496
2832.306, 72.237, -158.110
2873.503, 72.329, -159.664
2915.299, 72.354, -161.746
2957.703, 72.376, -163.066
3000.724, 72.395, -165.010
3044.370, 72.347, -166.556
3088.652, 72.276, -167.940
3133.577, 72.244, -169.340
3179.156, 72.148, -170.904
3225.398, 72.059, -172.188
3272.312, 71.967, -173.272
3319.909, 71.825, -174.551
3368.198, 71.691, -175.543
3417.190, 71.516, -176.501
3466.894, 71.358, -176.922
3517.321, 71.210, -177.523
3568.482, 71.067, -177.973
3620.387, 70.841, -178.216
3673.046, 70.744, -178.367
3726.472, 70.591, -178.582
3780.675, 70.350, -178.793
3835.666, 70.097, -178.492
3891.457, 69.863, -177.142
3948.060, 69.785, -175.809
4005.486, 69.752, -174.869
4063.747, 69.697, -173.584
4122.855, 69.675, -171.740
4182.824, 69.794, -170.488
4243.664, 69.976, -169.530
4305.390, 70.099, -168.043
4368.013, 70.329, -167.315
4431.547, 70.591, -166.811
4496.005, 70.839, -166.776
4561.401, 71.064, -167.142
4627.749, 71.321, -167.351
4695.061, 71.498, -168.129
4763.352, 71.614, -168.869
4832.637, 71.719, -169.039
4902.929, 71.908, -168.995
4974.244, 72.185, -168.663
5046.596, 72.443, -169.782
5120.000, 72.743, -169.742
5194.472, 73.168, -170.064
5270.027, 73.681, -171.497
5346.682, 74.255, -173.786
5424.451, 74.785, -176.975
5503.352, 75.308, 178.339
5583.399, 75.705, 172.278
5664.612, 75.849, 165.301
5747.006, 75.766, 158.337
5830.598, 75.502, 151.345
5915.406, 75.017, 144.728
6001.447, 74.333, 138.952
6088.740, 73.527, 134.174
6177.303, 72.649, 130.370
6267.154, 71.712, 127.531
6358.312, 70.749, 125.669
6450.796, 69.789, 124.737
6544.625, 68.833, 124.641
6639.818, 67.895, 125.440
6736.397, 67.013, 127.124
6834.380, 66.212, 129.582
6933.789, 65.497, 132.723
7034.643, 64.908, 136.568
7136.964, 64.490, 140.890
7240.773, 64.277, 145.044
7346.093, 64.270, 148.723
7452.944, 64.441, 150.995
7561.350, 64.663, 150.413
7671.332, 64.537, 146.825
7782.915, 63.615, 142.154
7896.120, 61.387, 140.445
8010.971, 58.416, 156.481
8127.493, 58.976, -173.102
8245.711, 61.894, -160.545
8365.647, 64.322, -158.578
8487.328, 66.206, -161.468
8610.779, 67.747, -165.926
8736.026, 69.538, -172.105
8863.095, 70.571, 174.150
8992.011, 71.022, 158.992
9122.803, 70.462, 142.144
9255.497, 68.875, 127.988
9390.121, 66.639, 118.656
9526.704, 64.129, 114.517
9665.273, 61.518, 114.962
9805.857, 58.831, 120.123
9948.487, 56.109, 131.862
10093.191, 53.931, 155.104
10240.000, 54.530, -172.946
10388.944, 58.134, -154.090
10540.055, 61.870, -155.511
10693.363, 64.006, -168.960
10848.902, 64.227, 176.843
11006.703, 63.507, 167.853
11166.799, 62.615, 163.411
11329.224, 61.662, 161.552
11494.012, 60.819, 162.211
11661.195, 60.133, 163.839
11830.812, 59.592, 166.395
12002.895, 59.275, 169.578
12177.480, 59.150, 172.089
12354.606, 59.137, 173.641
12534.309, 59.106, 173.974
12716.624, 58.957, 173.566
12901.592, 58.679, 172.951
13089.250, 58.280, 172.578
13279.637, 57.848, 172.653
13472.794, 57.356, 172.663
13668.760, 56.783, 172.712
13867.577, 56.097, 173.021
14069.285, 55.044, 173.963
14273.928, 53.932, 178.109
14481.547, 52.799, -176.368
14692.186, 51.913, -162.946
14905.889, 52.124, -151.481
15122.700, 52.859, -141.735
15342.664, 53.871, -135.633
15565.829, 54.846, -132.251
15792.239, 55.674, -130.369
16021.942, 56.453, -128.369
16254.986, 57.695, -125.678
16491.422, 59.344, -128.815
16731.295, 60.533, -139.333
16974.656, 60.613, -151.545
17221.559, 60.008, -161.284
17472.053, 58.927, -168.770
17726.189, 57.599, -173.210
17984.021, 56.197, -173.994
18245.605, 55.021, -171.606
18510.994, 54.271, -167.346
18780.242, 54.127, -163.862
19053.408, 54.051, -164.820
19330.547, 53.512, -165.930
19611.715, 52.916, -165.847
19896.975, 52.522, -165.434
