* Measurement data measured by REW V5.19
* Source: ASIO MOTU M Series, In 1
* Format: 512k Log Swept Sine, 2 sweeps at -10.0 dBFS  With no timing reference
* Dated: 10 Sep, 2020 7:23:16 PM
* REW Settings:
*  C-weighting compensation: Off
*  Target level: 75.0 dB
* Note: ; 
* Measurement: Sep 10 19:23:16
* Smoothing: None
* Frequency Step: 1/48 octave
* Start Frequency: 10.1 Hz
*
* Freq(Hz), SPL(dB), Phase(degrees)
10.145, 70.029, -79.452
10.293, 70.107, -81.108
10.443, 70.185, -82.872
10.595, 70.246, -84.359
10.749, 70.299, -85.762
10.905, 70.351, -87.062
11.064, 70.401, -88.271
11.225, 70.456, -89.401
11.388, 70.516, -90.458
11.554, 70.586, -91.491
11.722, 70.663, -92.499
11.892, 70.746, -93.539
12.065, 70.834, -94.608
12.241, 70.920, -95.735
12.419, 71.004, -96.911
12.599, 71.077, -98.129
12.782, 71.142, -99.370
12.968, 71.193, -100.606
13.157, 71.236, -101.815
13.348, 71.270, -102.974
13.543, 71.304, -104.080
13.740, 71.339, -105.130
13.939, 71.383, -106.163
14.142, 71.436, -107.207
14.348, 71.501, -108.312
14.557, 71.571, -109.523
14.768, 71.644, -110.862
14.983, 71.707, -112.344
15.201, 71.755, -113.934
15.422, 71.781, -115.608
15.646, 71.781, -117.274
15.874, 71.759, -118.870
16.105, 71.720, -120.332
16.339, 71.678, -121.595
16.577, 71.646, -122.668
16.818, 71.639, -123.571
17.063, 71.669, -124.392
17.311, 71.737, -125.253
17.563, 71.838, -126.239
17.818, 71.959, -127.427
18.077, 72.083, -128.844
18.340, 72.192, -130.438
18.607, 72.277, -132.136
18.877, 72.332, -133.845
19.152, 72.359, -135.467
19.431, 72.366, -136.922
19.713, 72.364, -138.182
20.000, 72.363, -139.249
20.291, 72.372, -140.155
20.586, 72.394, -140.948
20.885, 72.432, -141.683
21.189, 72.486, -142.418
21.497, 72.550, -143.215
21.810, 72.618, -144.136
22.127, 72.677, -145.222
22.449, 72.707, -146.464
22.776, 72.695, -147.784
23.107, 72.631, -149.033
23.443, 72.526, -150.037
23.784, 72.407, -150.682
24.130, 72.312, -151.002
24.481, 72.268, -151.210
24.837, 72.273, -151.597
25.198, 72.292, -152.347
25.565, 72.283, -153.409
25.937, 72.225, -154.532
26.314, 72.136, -155.446
26.697, 72.063, -156.074
27.085, 72.046, -156.645
27.479, 72.076, -157.535
27.879, 72.097, -158.934
28.284, 72.044, -160.639
28.696, 71.897, -162.181
29.113, 71.693, -163.099
29.537, 71.513, -163.268
29.966, 71.421, -163.002
30.402, 71.420, -162.759
30.844, 71.472, -162.813
31.293, 71.536, -163.177
31.748, 71.590, -163.774
32.210, 71.623, -164.548
32.678, 71.625, -165.436
33.154, 71.590, -166.363
33.636, 71.513, -167.254
34.125, 71.387, -167.973
34.621, 71.226, -168.214
35.125, 71.119, -167.797
35.636, 71.163, -167.337
36.154, 71.308, -168.044
36.680, 71.326, -170.106
37.214, 71.064, -172.056
37.755, 70.702, -172.061
38.304, 70.627, -170.659
38.861, 70.848, -171.022
39.427, 70.888, -173.863
40.000, 70.470, -176.373
40.582, 69.961, -175.481
41.172, 69.971, -173.148
41.771, 70.303, -173.937
42.379, 70.245, -177.478
42.995, 69.650, -179.300
43.620, 69.153, -176.926
44.255, 69.300, -174.311
44.898, 69.582, -175.537
45.552, 69.366, -178.486
46.214, 68.734, -179.067
46.886, 68.268, -176.379
47.568, 68.246, -173.612
48.260, 68.365, -172.862
48.962, 68.337, -173.563
49.674, 68.048, -174.124
50.397, 67.691, -172.651
51.130, 67.670, -170.273
51.874, 67.777, -169.807
52.628, 67.638, -169.505
53.394, 67.565, -167.697
54.170, 67.608, -166.658
54.958, 67.441, -165.247
55.758, 67.441, -161.955
56.569, 67.684, -160.086
57.391, 67.721, -159.178
58.226, 67.709, -157.363
59.073, 67.747, -155.498
59.932, 67.837, -153.109
60.804, 68.150, -151.056
61.688, 68.491, -150.453
62.586, 68.703, -150.169
63.496, 68.892, -148.972
64.420, 69.275, -147.653
65.357, 69.635, -147.625
66.307, 69.856, -146.903
67.272, 70.281, -145.917
68.250, 70.712, -146.653
69.243, 70.922, -147.585
70.250, 71.164, -147.181
71.272, 71.662, -147.886
72.309, 71.852, -149.934
73.360, 72.071, -149.297
74.427, 72.629, -150.608
75.510, 72.876, -152.792
76.608, 73.162, -154.723
77.723, 73.258, -156.833
78.853, 73.475, -158.031
80.000, 73.666, -159.985
81.164, 73.923, -161.822
82.344, 74.104, -164.723
83.542, 74.174, -168.353
84.757, 73.876, -171.693
85.990, 73.626, -173.828
87.241, 73.148, -175.512
88.510, 72.850, -175.164
89.797, 72.572, -174.133
91.103, 72.595, -171.626
92.428, 72.985, -169.470
93.773, 73.425, -170.863
95.137, 73.547, -171.916
96.520, 73.715, -173.182
97.924, 73.948, -174.939
99.349, 74.008, -176.736
100.794, 74.119, -178.810
102.260, 74.145, -179.286
103.747, 74.143, 178.529
105.256, 74.139, 178.017
106.787, 74.120, 175.755
108.340, 74.047, 174.129
109.916, 74.029, 172.394
111.515, 73.976, 171.509
113.137, 74.046, 170.142
114.783, 73.960, 168.792
116.452, 73.869, 167.168
118.146, 73.770, 165.962
119.865, 73.755, 164.607
121.608, 73.649, 162.760
123.377, 73.525, 161.942
125.171, 73.490, 160.753
126.992, 73.368, 159.343
128.839, 73.225, 157.775
130.713, 73.138, 157.170
132.615, 72.968, 155.994
134.543, 72.890, 155.144
136.500, 72.696, 153.911
138.486, 72.541, 152.485
140.500, 72.490, 151.749
142.544, 72.336, 150.653
144.617, 72.188, 150.063
146.721, 71.943, 148.920
148.855, 71.857, 148.030
151.020, 71.655, 147.148
153.217, 71.512, 146.671
155.445, 71.298, 145.643
157.706, 71.125, 145.207
160.000, 70.892, 144.411
162.327, 70.578, 144.095
164.688, 70.397, 143.934
167.084, 70.191, 145.572
169.514, 70.165, 144.334
171.980, 70.196, 144.539
174.481, 70.035, 143.618
177.019, 69.907, 142.040
179.594, 69.666, 142.673
182.206, 69.559, 141.773
184.856, 69.345, 141.667
187.545, 69.150, 140.963
190.273, 68.933, 140.818
193.041, 68.846, 140.478
195.849, 68.545, 140.318
198.697, 68.400, 140.059
201.587, 68.209, 139.976
204.520, 68.049, 139.994
207.494, 67.805, 139.877
210.512, 67.574, 139.907
213.574, 67.378, 139.990
216.681, 67.179, 139.793
219.833, 66.961, 139.607
223.030, 66.785, 140.227
226.274, 66.566, 140.489
229.565, 66.288, 140.987
232.905, 66.144, 140.951
236.292, 66.002, 141.185
239.729, 65.750, 141.629
243.216, 65.639, 142.847
246.754, 65.442, 142.718
250.343, 65.181, 143.275
253.984, 64.996, 144.035
257.678, 64.839, 144.771
261.426, 64.588, 145.685
265.229, 64.430, 145.774
269.087, 64.238, 147.156
273.001, 64.138, 148.117
276.972, 63.875, 148.967
281.000, 63.678, 149.568
285.088, 63.562, 150.980
289.234, 63.416, 151.658
293.441, 63.299, 152.823
297.710, 62.996, 153.976
302.040, 63.009, 154.951
306.433, 62.726, 156.020
310.890, 62.487, 156.604
315.412, 62.487, 158.525
320.000, 62.356, 161.531
324.655, 62.195, 161.571
329.377, 62.514, 163.743
334.168, 61.944, 165.076
339.028, 61.889, 166.553
343.959, 62.035, 167.299
348.962, 61.738, 170.221
354.038, 61.725, 171.175
359.188, 61.594, 173.401
364.412, 61.777, 175.229
369.713, 61.717, 176.378
375.090, 61.755, 178.867
380.546, 61.730, 178.991
386.081, 61.558, -178.463
391.697, 61.634, -176.980
397.395, 61.870, -173.584
403.175, 62.074, -172.955
409.039, 62.111, -171.817
414.989, 62.253, -170.789
421.025, 62.068, -168.739
427.149, 62.213, -166.078
433.362, 62.479, -164.725
439.665, 62.642, -164.980
446.060, 62.741, -162.796
452.548, 62.915, -160.462
459.131, 63.047, -159.970
465.809, 63.192, -158.670
472.584, 63.768, -158.738
479.458, 63.289, -158.262
486.432, 63.890, -155.367
493.507, 64.164, -156.782
500.686, 64.252, -152.264
507.968, 64.815, -154.530
515.357, 64.576, -154.359
522.853, 65.346, -151.632
530.458, 65.492, -152.878
538.174, 65.767, -151.715
546.002, 65.775, -152.142
553.943, 66.012, -152.099
562.001, 66.173, -152.176
570.175, 66.516, -152.506
578.469, 66.577, -152.284
586.883, 66.783, -153.612
595.419, 67.090, -154.007
604.080, 67.057, -154.170
612.866, 67.434, -154.892
621.780, 67.549, -156.348
630.824, 67.450, -156.661
640.000, 67.885, -156.646
649.309, 67.915, -157.242
658.753, 68.051, -158.334
668.335, 68.125, -158.120
678.056, 68.139, -159.861
687.919, 68.357, -159.551
697.925, 68.564, -160.994
708.076, 68.358, -161.402
718.376, 68.547, -160.861
728.825, 68.753, -163.013
739.426, 68.693, -164.308
750.181, 68.626, -164.553
761.093, 68.667, -164.542
772.163, 68.655, -165.560
783.394, 68.797, -166.497
794.789, 68.733, -166.279
806.349, 68.836, -167.071
818.078, 68.826, -168.574
829.977, 68.786, -168.817
842.050, 69.017, -169.323
854.297, 68.841, -170.076
866.724, 69.012, -171.158
879.330, 69.027, -171.864
892.120, 69.026, -172.123
905.097, 68.936, -172.087
918.262, 68.733, -173.509
931.618, 68.867, -174.771
945.169, 68.819, -175.423
958.917, 68.807, -175.679
972.864, 68.823, -176.135
987.015, 68.801, -177.653
1001.371, 68.745, -177.967
1015.937, 68.622, -179.042
1030.714, 68.529, -179.827
1045.706, 68.293, 179.871
1060.916, 68.316, 178.795
1076.347, 68.287, 179.363
1092.003, 68.098, 179.871
1107.887, 67.908, 178.372
1124.001, 67.758, 178.705
1140.350, 67.580, 178.500
1156.937, 67.290, 178.869
1173.765, 67.243, 179.281
1190.838, 67.130, -179.496
1208.159, 67.102, 179.993
1225.732, 66.843, -179.128
1243.561, 66.862, -177.742
1261.649, 66.928, -177.956
1280.000, 66.762, -175.343
1298.618, 66.856, -175.677
1317.507, 66.781, -174.160
1336.670, 66.684, -173.962
1356.113, 66.757, -172.704
1375.838, 66.901, -172.629
1395.850, 67.017, -172.313
1416.153, 67.222, -171.283
1436.751, 67.158, -172.283
1457.649, 67.393, -171.395
1478.851, 67.247, -170.953
1500.362, 67.485, -171.788
1522.185, 67.484, -172.012
1544.326, 67.683, -171.443
1566.789, 67.667, -173.062
1589.578, 67.796, -173.555
1612.699, 67.647, -174.144
1636.156, 67.771, -175.228
1659.955, 67.758, -175.051
1684.099, 67.659, -177.016
1708.595, 67.707, -178.695
1733.447, 67.475, -179.028
1758.661, 67.617, 179.618
1784.241, 67.248, 178.794
1810.193, 66.964, 179.316
1836.523, 66.609, 176.805
1863.236, 66.358, 177.669
1890.338, 65.965, 177.853
1917.833, 65.624, 179.441
1945.729, 65.312, 179.065
1974.030, 64.845, -179.535
2002.743, 64.526, -178.838
2031.873, 64.451, -175.284
2061.428, 63.994, -174.603
2091.412, 63.299, -171.483
2121.832, 63.342, -169.064
2152.695, 62.698, -167.095
2184.007, 62.687, -160.831
2215.774, 62.471, -156.316
2248.003, 62.746, -149.037
2280.701, 63.401, -144.522
2313.874, 63.963, -135.184
2347.530, 64.829, -130.343
2381.676, 65.822, -129.012
2416.318, 66.611, -128.970
2451.464, 67.606, -129.904
2487.122, 68.368, -130.710
2523.298, 68.663, -133.974
2560.000, 69.150, -136.866
2597.236, 69.372, -139.476
2635.014, 69.614, -141.769
2673.341, 69.491, -142.226
2712.226, 69.742, -144.415
2751.676, 69.522, -144.998
2791.700, 69.942, -143.781
2832.306, 69.989, -143.508
2873.503, 70.386, -144.215
2915.299, 70.605, -145.736
2957.703, 70.876, -146.726
3000.724, 71.078, -148.243
3044.370, 71.485, -150.943
3088.652, 71.606, -152.994
3133.577, 71.609, -155.552
3179.156, 71.561, -157.467
3225.398, 71.611, -158.904
3272.312, 71.535, -158.017
3319.909, 71.715, -162.236
3368.198, 71.461, -160.923
3417.190, 71.365, -163.111
3466.894, 71.389, -164.277
3517.321, 71.633, -165.698
3568.482, 71.735, -165.968
3620.387, 71.438, -168.677
3673.046, 71.621, -171.701
3726.472, 71.674, -171.902
3780.675, 71.514, -174.245
3835.666, 71.240, -177.140
3891.457, 71.098, -177.096
3948.060, 70.721, -179.064
4005.486, 70.194, -179.871
4063.747, 69.385, 177.565
4122.855, 69.137, -179.260
4182.824, 68.873, -175.854
4243.664, 68.377, -175.886
4305.390, 68.418, -172.186
4368.013, 68.497, -173.258
4431.547, 68.137, -169.295
4496.005, 67.917, -167.846
4561.401, 68.041, -165.554
4627.749, 67.784, -160.923
4695.061, 68.349, -158.680
4763.352, 68.926, -154.113
4832.637, 69.559, -153.359
4902.929, 70.209, -152.532
4974.244, 70.610, -153.807
5046.596, 71.359, -152.998
5120.000, 71.720, -153.562
5194.472, 72.708, -154.977
5270.027, 73.158, -161.909
5346.682, 73.415, -164.011
5424.451, 73.515, -170.052
5503.352, 73.489, -170.719
5583.399, 73.855, -174.303
5664.612, 74.262, -179.697
5747.006, 74.326, 176.323
5830.598, 74.421, 169.968
5915.406, 74.056, 165.211
6001.447, 73.625, 158.504
6088.740, 73.283, 154.368
6177.303, 72.799, 150.774
6267.154, 72.141, 144.078
6358.312, 71.186, 140.124
6450.796, 69.875, 139.165
6544.625, 68.735, 142.611
6639.818, 68.205, 144.126
6736.397, 67.364, 146.188
6834.380, 67.014, 147.634
6933.789, 66.932, 150.429
7034.643, 66.751, 150.264
7136.964, 66.577, 152.517
7240.773, 66.355, 150.925
7346.093, 66.366, 152.509
7452.944, 66.683, 150.056
7561.350, 66.815, 146.121
7671.332, 66.616, 139.414
7782.915, 65.698, 132.968
7896.120, 64.245, 126.854
8010.971, 62.100, 126.411
8127.493, 60.551, 130.003
8245.711, 59.255, 132.664
8365.647, 56.953, 135.634
8487.328, 54.664, 170.089
8610.779, 56.447, -171.164
8736.026, 59.179, -167.762
8863.095, 60.198, -173.606
8992.011, 60.299, -171.115
9122.803, 61.129, -168.385
9255.497, 62.539, -167.096
9390.121, 63.815, -176.994
9526.704, 63.672, 172.179
9665.273, 62.910, 161.758
9805.857, 61.602, 153.606
9948.487, 58.775, 153.121
10093.191, 56.528, 167.238
10240.000, 56.879, -173.820
10388.944, 59.193, -167.992
10540.055, 60.597, -174.387
10693.363, 60.970, 179.974
10848.902, 61.313, 174.259
11006.703, 61.629, 160.073
11166.799, 60.212, 145.241
11329.224, 57.461, 135.890
11494.012, 54.980, 143.267
11661.195, 53.103, 143.098
11830.812, 50.888, 147.214
12002.895, 47.254, 150.852
12177.480, 44.304, -164.313
12354.606, 48.615, -137.092
12534.309, 50.547, -139.230
12716.624, 52.028, -143.116
12901.592, 51.862, -149.953
13089.250, 52.572, -151.295
13279.637, 52.303, -158.394
13472.794, 50.960, -161.183
13668.760, 50.284, -155.800
13867.577, 49.244, -152.871
14069.285, 47.816, -147.529
14273.928, 47.123, -130.100
14481.547, 49.851, -119.270
14692.186, 51.004, -127.897
14905.889, 49.655, -131.482
15122.700, 49.267, -126.792
15342.664, 49.631, -127.598
15565.829, 49.895, -123.449
15792.239, 50.994, -124.378
16021.942, 51.576, -130.692
16254.986, 51.511, -136.761
16491.422, 50.697, -146.762
16731.295, 49.591, -149.882
16974.656, 49.061, -156.744
17221.559, 47.117, -162.128
17472.053, 45.015, -156.618
17726.189, 43.838, -146.423
17984.021, 44.393, -148.516
18245.605, 43.253, -154.423
18510.994, 41.972, -160.362
18780.242, 40.759, -158.952
19053.408, 38.748, -160.396
19330.547, 36.944, -157.148
19611.715, 36.979, -150.961
19896.975, 35.669, -154.404
