* Measurement data measured by REW V5.19
* Source: ASIO MOTU M Series, In 1
* Format: 512k Log Swept Sine, 2 sweeps at -10.0 dBFS  With no timing reference
* Dated: 10 Sep, 2020 7:20:23 PM
* REW Settings:
*  C-weighting compensation: Off
*  Target level: 75.0 dB
* Note: ; 
* Measurement: Sep 10 19:20:23
* Smoothing: None
* Frequency Step: 1/48 octave
* Start Frequency: 10.1 Hz
*
* Freq(Hz), SPL(dB), Phase(degrees)
10.145, 65.101, -54.790
10.293, 65.229, -56.315
10.443, 65.358, -57.977
10.595, 65.475, -59.438
10.749, 65.588, -60.877
10.905, 65.696, -62.299
11.064, 65.799, -63.703
11.225, 65.897, -65.093
11.388, 65.990, -66.465
11.554, 66.078, -67.816
11.722, 66.160, -69.140
11.892, 66.236, -70.420
12.065, 66.308, -71.651
12.241, 66.379, -72.812
12.419, 66.451, -73.906
12.599, 66.530, -74.929
12.782, 66.618, -75.902
12.968, 66.722, -76.849
13.157, 66.839, -77.814
13.348, 66.972, -78.831
13.543, 67.112, -79.945
13.740, 67.257, -81.170
13.939, 67.394, -82.502
14.142, 67.519, -83.907
14.348, 67.624, -85.339
14.557, 67.711, -86.705
14.768, 67.782, -87.962
14.983, 67.849, -89.028
15.201, 67.927, -89.923
15.422, 68.026, -90.649
15.646, 68.159, -91.336
15.874, 68.322, -92.073
16.105, 68.510, -92.961
16.339, 68.699, -94.069
16.577, 68.873, -95.351
16.818, 69.019, -96.750
17.063, 69.126, -98.123
17.311, 69.205, -99.343
17.563, 69.270, -100.358
17.818, 69.339, -101.155
18.077, 69.431, -101.843
18.340, 69.542, -102.573
18.607, 69.659, -103.436
18.877, 69.761, -104.453
19.152, 69.829, -105.540
19.431, 69.858, -106.501
19.713, 69.874, -107.197
20.000, 69.911, -107.637
20.291, 69.998, -108.003
20.586, 70.143, -108.609
20.885, 70.313, -109.756
21.189, 70.448, -111.531
21.497, 70.491, -113.716
21.810, 70.420, -115.875
22.127, 70.259, -117.529
22.449, 70.082, -118.377
22.776, 69.986, -118.528
23.107, 70.030, -118.541
23.443, 70.194, -119.101
23.784, 70.392, -120.562
24.130, 70.529, -122.769
24.481, 70.554, -125.212
24.837, 70.480, -127.310
25.198, 70.374, -128.688
25.565, 70.320, -129.379
25.937, 70.376, -129.826
26.314, 70.528, -130.600
26.697, 70.704, -132.050
27.085, 70.815, -134.102
27.479, 70.797, -136.308
27.879, 70.648, -138.012
28.284, 70.444, -138.667
28.696, 70.313, -138.259
29.113, 70.355, -137.563
29.537, 70.525, -137.631
29.966, 70.671, -138.795
30.402, 70.679, -140.498
30.844, 70.557, -141.888
31.293, 70.407, -142.626
31.748, 70.298, -143.111
32.210, 70.189, -143.747
32.678, 70.019, -144.170
33.154, 69.846, -143.742
33.636, 69.815, -142.714
34.125, 69.925, -142.160
34.621, 70.011, -142.229
35.125, 70.027, -141.700
35.636, 70.197, -140.037
36.154, 70.694, -138.989
36.680, 71.287, -140.328
37.214, 71.641, -143.435
37.755, 71.709, -146.370
38.304, 71.681, -148.232
38.861, 71.701, -149.800
39.427, 71.687, -151.745
40.000, 71.560, -153.539
40.582, 71.423, -154.629
41.172, 71.378, -155.731
41.771, 71.334, -157.646
42.379, 71.149, -159.997
42.995, 70.824, -161.782
43.620, 70.484, -162.555
44.255, 70.237, -162.766
44.898, 70.057, -163.189
45.552, 69.822, -163.742
46.214, 69.546, -163.429
46.886, 69.440, -162.302
47.568, 69.537, -162.161
48.260, 69.552, -163.768
48.962, 69.271, -165.664
49.674, 68.796, -165.839
50.397, 68.498, -164.056
51.130, 68.513, -163.039
51.874, 68.402, -163.932
52.628, 67.978, -163.710
53.394, 67.728, -161.319
54.170, 67.680, -159.992
54.958, 67.408, -158.522
55.758, 67.327, -154.848
56.569, 67.565, -152.840
57.391, 67.550, -151.737
58.226, 67.625, -149.015
59.073, 67.856, -147.770
59.932, 67.840, -146.068
60.804, 68.127, -142.938
61.688, 68.491, -142.141
62.586, 68.647, -140.411
63.496, 69.136, -138.677
64.420, 69.492, -139.314
65.357, 69.620, -139.084
66.307, 69.844, -138.235
67.272, 70.189, -137.687
68.250, 70.542, -138.527
69.243, 70.694, -139.098
70.250, 70.977, -138.757
71.272, 71.326, -138.975
72.309, 71.744, -139.306
73.360, 72.133, -140.994
74.427, 72.280, -142.485
75.510, 72.429, -143.016
76.608, 72.630, -143.194
77.723, 73.033, -143.685
78.853, 73.369, -145.953
80.000, 73.610, -147.537
81.164, 73.965, -149.861
82.344, 74.168, -152.458
83.542, 74.407, -154.670
84.757, 74.614, -157.877
85.990, 74.586, -161.083
87.241, 74.514, -163.801
88.510, 74.347, -166.364
89.797, 74.176, -169.931
91.103, 73.358, -172.387
92.428, 72.869, -169.379
93.773, 72.857, -166.942
95.137, 73.033, -165.405
96.520, 73.264, -164.094
97.924, 73.652, -164.518
99.349, 73.788, -165.558
100.794, 74.177, -166.283
102.260, 74.270, -169.520
103.747, 74.373, -170.141
105.256, 74.513, -172.169
106.787, 74.557, -173.621
108.340, 74.589, -175.131
109.916, 74.687, -176.257
111.515, 74.719, -178.310
113.137, 74.739, -179.920
114.783, 74.726, 178.461
116.452, 74.661, 176.345
118.146, 74.558, 174.606
119.865, 74.494, 173.626
121.608, 74.467, 171.820
123.377, 74.360, 170.943
125.171, 74.311, 170.137
126.992, 74.287, 168.689
128.839, 74.242, 167.721
130.713, 74.306, 165.580
132.615, 74.209, 164.600
134.543, 74.107, 163.159
136.500, 74.039, 161.364
138.486, 73.926, 159.599
140.500, 73.813, 158.721
142.544, 73.713, 157.392
144.617, 73.602, 155.862
146.721, 73.391, 154.711
148.855, 73.250, 153.149
151.020, 73.111, 151.836
153.217, 72.852, 150.667
155.445, 72.715, 149.888
157.706, 72.468, 148.703
160.000, 72.244, 148.213
162.327, 71.922, 147.149
164.688, 71.597, 147.630
167.084, 71.488, 149.177
169.514, 71.649, 149.075
171.980, 71.619, 146.671
174.481, 71.484, 146.217
177.019, 71.447, 145.425
179.594, 71.283, 143.962
182.206, 71.056, 143.050
184.856, 70.912, 142.581
187.545, 70.810, 141.568
190.273, 70.538, 140.959
193.041, 70.294, 140.064
195.849, 70.072, 139.632
198.697, 69.870, 139.085
201.587, 69.668, 138.691
204.520, 69.430, 138.401
207.494, 69.249, 138.363
210.512, 69.125, 138.180
213.574, 68.840, 137.383
216.681, 68.575, 137.055
219.833, 68.322, 136.728
223.030, 68.205, 137.032
226.274, 67.958, 137.318
229.565, 67.717, 136.883
232.905, 67.514, 137.069
236.292, 67.305, 137.054
239.729, 67.038, 136.872
243.216, 66.908, 137.578
246.754, 66.641, 137.438
250.343, 66.305, 138.225
253.984, 66.211, 137.957
257.678, 65.949, 139.101
261.426, 65.738, 139.414
265.229, 65.601, 139.641
269.087, 65.346, 140.512
273.001, 65.142, 141.033
276.972, 64.946, 141.514
281.000, 64.723, 142.605
285.088, 64.519, 142.573
289.234, 64.459, 144.111
293.441, 64.135, 144.592
297.710, 64.020, 145.599
302.040, 63.841, 146.701
306.433, 63.576, 147.623
310.890, 63.539, 148.029
315.412, 63.305, 150.113
320.000, 63.032, 151.241
324.655, 62.955, 152.815
329.377, 62.861, 153.852
334.168, 62.771, 154.981
339.028, 62.753, 156.181
343.959, 62.561, 158.059
348.962, 62.320, 158.471
354.038, 62.324, 160.120
359.188, 62.105, 162.105
364.412, 62.152, 163.406
369.713, 62.172, 164.033
375.090, 61.994, 166.686
380.546, 62.170, 166.770
386.081, 61.997, 167.898
391.697, 61.897, 169.522
397.395, 61.842, 171.520
403.175, 62.108, 173.444
409.039, 62.080, 173.497
414.989, 62.171, 176.277
421.025, 62.058, 177.257
427.149, 62.097, 179.536
433.362, 61.984, 179.946
439.665, 62.021, -179.613
446.060, 62.301, -176.745
452.548, 62.355, -176.663
459.131, 62.444, -174.818
465.809, 62.300, -173.264
472.584, 62.817, -173.068
479.458, 62.791, -171.989
486.432, 62.868, -170.134
493.507, 63.001, -168.594
500.686, 63.036, -167.892
507.968, 63.141, -166.817
515.357, 63.178, -166.722
522.853, 63.270, -165.717
530.458, 63.522, -164.970
538.174, 63.770, -163.789
546.002, 63.996, -161.924
553.943, 63.871, -162.391
562.001, 64.162, -161.678
570.175, 64.402, -159.701
578.469, 64.520, -158.626
586.883, 64.794, -158.954
595.419, 64.839, -159.459
604.080, 65.031, -159.111
612.866, 65.293, -158.362
621.780, 65.440, -158.130
630.824, 65.584, -159.315
640.000, 65.739, -158.691
649.309, 66.157, -159.485
658.753, 66.246, -159.158
668.335, 66.287, -159.449
678.056, 66.545, -159.977
687.919, 66.642, -162.023
697.925, 66.823, -160.498
708.076, 66.983, -161.864
718.376, 67.092, -161.037
728.825, 67.200, -162.454
739.426, 67.497, -163.346
750.181, 67.460, -163.980
761.093, 67.428, -165.123
772.163, 67.548, -164.246
783.394, 67.660, -166.710
794.789, 67.723, -166.244
806.349, 67.756, -167.370
818.078, 67.775, -168.823
829.977, 67.858, -169.004
842.050, 67.811, -169.476
854.297, 67.752, -170.391
866.724, 67.823, -170.887
879.330, 67.721, -171.594
892.120, 67.852, -173.291
905.097, 67.788, -172.094
918.262, 67.535, -174.554
931.618, 67.711, -173.302
945.169, 67.796, -173.438
958.917, 67.580, -174.699
972.864, 67.626, -175.534
987.015, 67.662, -175.264
1001.371, 67.696, -175.756
1015.937, 67.641, -177.035
1030.714, 67.592, -177.602
1045.706, 67.449, -176.448
1060.916, 67.394, -178.778
1076.347, 67.255, -178.730
1092.003, 67.332, -178.944
1107.887, 67.163, -178.541
1124.001, 66.963, -179.241
1140.350, 66.881, -179.067
1156.937, 66.877, -177.871
1173.765, 66.835, -177.850
1190.838, 66.734, -177.493
1208.159, 66.702, -177.780
1225.732, 66.573, -176.873
1243.561, 66.766, -177.616
1261.649, 66.568, -176.856
1280.000, 66.586, -176.300
1298.618, 66.599, -176.120
1317.507, 66.449, -174.976
1336.670, 66.420, -175.312
1356.113, 66.456, -174.107
1375.838, 66.495, -174.419
1395.850, 66.634, -173.771
1416.153, 66.485, -173.731
1436.751, 66.652, -172.613
1457.649, 66.663, -172.898
1478.851, 66.599, -171.479
1500.362, 66.883, -171.130
1522.185, 66.761, -171.213
1544.326, 66.834, -170.620
1566.789, 66.879, -172.650
1589.578, 67.137, -169.838
1612.699, 67.153, -170.369
1636.156, 67.168, -171.223
1659.955, 67.550, -171.205
1684.099, 67.528, -170.323
1708.595, 67.773, -173.037
1733.447, 67.665, -173.820
1758.661, 67.738, -174.709
1784.241, 67.686, -175.532
1810.193, 67.440, -176.832
1836.523, 67.751, -177.695
1863.236, 67.587, 179.569
1890.338, 67.511, 177.964
1917.833, 67.106, 177.878
1945.729, 66.795, 176.636
1974.030, 66.526, 176.446
2002.743, 66.505, 176.990
2031.873, 65.728, 177.842
2061.428, 65.382, 176.128
2091.412, 65.203, 177.792
2121.832, 64.852, 179.681
2152.695, 64.175, -179.553
2184.007, 64.000, -176.892
2215.774, 63.393, -173.510
2248.003, 62.865, -168.815
2280.701, 62.855, -162.614
2313.874, 63.248, -156.440
2347.530, 63.466, -148.618
2381.676, 64.425, -143.930
2416.318, 65.686, -143.119
2451.464, 66.330, -143.310
2487.122, 66.798, -143.619
2523.298, 67.430, -144.799
2560.000, 67.630, -143.811
2597.236, 68.253, -145.608
2635.014, 68.436, -148.092
2673.341, 69.182, -148.484
2712.226, 69.047, -151.867
2751.676, 69.197, -155.166
2791.700, 69.130, -154.275
2832.306, 69.191, -156.336
2873.503, 69.488, -155.852
2915.299, 69.657, -155.644
2957.703, 69.755, -156.696
3000.724, 70.095, -156.802
3044.370, 70.319, -160.930
3088.652, 70.675, -162.597
3133.577, 70.675, -164.348
3179.156, 70.783, -166.917
3225.398, 70.449, -169.165
3272.312, 70.740, -169.779
3319.909, 70.187, -173.285
3368.198, 70.420, -173.010
3417.190, 70.154, -171.673
3466.894, 70.200, -174.135
3517.321, 70.165, -174.292
3568.482, 70.191, -177.319
3620.387, 70.201, -176.495
3673.046, 70.089, -177.340
3726.472, 69.731, -178.719
3780.675, 69.602, -179.550
3835.666, 69.949, -179.376
3891.457, 69.655, 178.911
3948.060, 69.477, 179.125
4005.486, 69.765, 177.101
4063.747, 69.471, 176.528
4122.855, 69.494, 175.339
4182.824, 69.045, 173.340
4243.664, 68.352, 175.448
4305.390, 68.092, 174.901
4368.013, 67.749, 177.077
4431.547, 67.626, 177.701
4496.005, 67.526, -179.000
4561.401, 67.258, -177.674
4627.749, 67.360, -176.326
4695.061, 67.300, -174.285
4763.352, 67.442, -172.120
4832.637, 67.731, -169.558
4902.929, 67.723, -166.168
4974.244, 67.898, -165.216
5046.596, 68.768, -162.904
5120.000, 69.225, -161.461
5194.472, 70.241, -160.668
5270.027, 71.199, -163.857
5346.682, 71.799, -165.466
5424.451, 72.437, -169.461
5503.352, 72.915, -175.652
5583.399, 73.165, 178.596
5664.612, 73.574, 171.493
5747.006, 73.251, 166.123
5830.598, 73.089, 160.263
5915.406, 72.703, 154.903
6001.447, 72.338, 150.080
6088.740, 71.634, 145.039
6177.303, 70.948, 143.782
6267.154, 70.602, 140.283
6358.312, 69.637, 139.616
6450.796, 68.650, 137.468
6544.625, 67.827, 139.235
6639.818, 67.165, 143.676
6736.397, 67.167, 147.373
6834.380, 67.323, 147.043
6933.789, 67.926, 147.313
7034.643, 67.833, 144.465
7136.964, 68.007, 144.229
7240.773, 67.939, 141.188
7346.093, 68.071, 139.722
7452.944, 68.275, 137.022
7561.350, 68.211, 132.730
7671.332, 68.292, 127.348
7782.915, 68.207, 121.631
7896.120, 68.074, 115.657
8010.971, 67.262, 107.765
8127.493, 66.632, 104.145
8245.711, 66.142, 100.754
8365.647, 66.326, 96.457
8487.328, 66.059, 88.888
8610.779, 66.439, 81.586
8736.026, 67.580, 65.095
8863.095, 67.404, 39.865
8992.011, 65.984, 16.988
9122.803, 64.877, -7.182
9255.497, 63.191, -28.317
9390.121, 61.495, -46.868
9526.704, 60.365, -61.157
9665.273, 58.991, -67.327
9805.857, 60.683, -68.790
9948.487, 62.132, -79.577
10093.191, 63.052, -93.282
10240.000, 63.544, -105.830
10388.944, 63.384, -115.930
10540.055, 64.189, -126.422
10693.363, 64.410, -135.629
10848.902, 64.844, -145.288
11006.703, 64.758, -162.707
11166.799, 63.112, -178.594
11329.224, 61.339, 174.569
11494.012, 59.822, 169.571
11661.195, 57.767, 167.140
11830.812, 54.673, 175.529
12002.895, 54.898, -168.856
12177.480, 55.631, -169.417
12354.606, 55.253, -171.174
12534.309, 55.282, -163.634
12716.624, 57.171, -161.544
12901.592, 58.183, 179.801
13089.250, 56.731, 160.499
13279.637, 54.397, 149.346
13472.794, 51.594, 133.610
13668.760, 47.590, 131.867
13867.577, 41.584, 112.964
14069.285, 26.647, 3.831
14273.928, 41.201, -80.062
14481.547, 44.807, -94.175
14692.186, 46.114, -95.177
14905.889, 46.877, -96.070
15122.700, 47.935, -95.105
15342.664, 49.701, -96.244
15565.829, 50.072, -104.717
15792.239, 49.432, -106.241
16021.942, 49.416, -104.154
16254.986, 49.571, -105.329
16491.422, 50.230, -103.054
16731.295, 50.910, -106.551
16974.656, 51.439, -111.610
17221.559, 51.962, -119.433
17472.053, 51.740, -134.622
17726.189, 50.095, -145.217
17984.021, 47.916, -153.991
18245.605, 45.671, -156.354
18510.994, 43.007, -153.018
18780.242, 41.063, -147.977
19053.408, 38.895, -142.357
19330.547, 36.900, -127.676
19611.715, 36.296, -103.699
19896.975, 39.015, -92.274
