* Measurement data measured by REW V5.19
* Source: ASIO MOTU M Series, In 1
* Format: 1M Log Swept Sine, 2 sweeps at -10.0 dBFS  With no timing reference
* Dated: 16 Sep, 2020 4:32:29 PM
* REW Settings:
*  C-weighting compensation: Off
*  Target level: 75.0 dB
* Note: ; 
* Measurement: Sep 16 16:32:29
* Smoothing: None
* Frequency Step: 1/48 octave
* Start Frequency: 10.0 Hz
*
* Freq(Hz), SPL(dB), Phase(degrees)
10.145, 60.643, -76.525
10.293, 60.775, -77.666
10.443, 60.897, -78.748
10.595, 61.014, -79.828
10.749, 61.125, -80.884
10.905, 61.231, -81.923
11.064, 61.336, -82.929
11.225, 61.439, -83.902
11.388, 61.543, -84.856
11.554, 61.649, -85.789
11.722, 61.756, -86.721
11.892, 61.866, -87.664
12.065, 61.976, -88.623
12.241, 62.085, -89.615
12.419, 62.190, -90.631
12.599, 62.288, -91.671
12.782, 62.380, -92.727
12.968, 62.462, -93.776
13.157, 62.535, -94.811
13.348, 62.599, -95.805
13.543, 62.657, -96.753
13.740, 62.710, -97.639
13.939, 62.762, -98.465
14.142, 62.815, -99.229
14.348, 62.872, -99.946
14.557, 62.934, -100.621
14.768, 63.003, -101.277
14.983, 63.078, -101.920
15.201, 63.160, -102.570
15.422, 63.247, -103.236
15.646, 63.341, -103.929
15.874, 63.438, -104.661
16.105, 63.538, -105.438
16.339, 63.639, -106.267
16.577, 63.738, -107.147
16.818, 63.832, -108.074
17.063, 63.920, -109.032
17.311, 64.000, -109.998
17.563, 64.073, -110.957
17.818, 64.141, -111.884
18.077, 64.208, -112.775
18.340, 64.276, -113.636
18.607, 64.349, -114.483
18.877, 64.426, -115.348
19.152, 64.503, -116.244
19.431, 64.577, -117.178
19.713, 64.643, -118.135
20.000, 64.699, -119.076
20.291, 64.746, -119.967
20.586, 64.789, -120.786
20.885, 64.834, -121.531
21.189, 64.886, -122.230
21.497, 64.946, -122.927
21.810, 65.009, -123.653
22.127, 65.070, -124.414
22.449, 65.125, -125.193
22.776, 65.174, -125.960
23.107, 65.220, -126.694
23.443, 65.266, -127.399
23.784, 65.317, -128.105
24.130, 65.371, -128.848
24.481, 65.423, -129.648
24.837, 65.467, -130.499
25.198, 65.502, -131.376
25.565, 65.527, -132.248
25.937, 65.544, -133.095
26.314, 65.558, -133.909
26.697, 65.570, -134.694
27.085, 65.583, -135.467
27.479, 65.596, -136.240
27.879, 65.605, -137.009
28.284, 65.610, -137.749
28.696, 65.613, -138.427
29.113, 65.622, -139.046
29.537, 65.640, -139.657
29.966, 65.659, -140.318
30.402, 65.667, -141.006
30.844, 65.659, -141.620
31.293, 65.646, -142.074
31.748, 65.647, -142.411
32.210, 65.660, -142.754
32.678, 65.666, -143.110
33.154, 65.664, -143.306
33.636, 65.685, -143.237
34.125, 65.782, -143.179
34.621, 65.934, -143.613
35.125, 66.057, -144.696
35.636, 66.090, -146.013
36.154, 66.053, -147.034
36.680, 66.026, -147.637
37.214, 66.052, -148.161
37.755, 66.108, -148.933
38.304, 66.159, -149.983
38.861, 66.181, -151.237
39.427, 66.152, -152.565
40.000, 66.067, -153.612
40.582, 65.983, -154.087
41.172, 65.983, -154.313
41.771, 66.043, -154.940
42.379, 66.062, -156.049
42.995, 66.007, -157.074
43.620, 65.936, -157.740
44.255, 65.894, -158.305
44.898, 65.856, -159.070
45.552, 65.776, -159.983
46.214, 65.638, -160.699
46.886, 65.501, -160.887
47.568, 65.453, -160.961
48.260, 65.424, -161.697
48.962, 65.272, -162.564
49.674, 65.087, -162.452
50.397, 65.059, -162.038
51.130, 65.072, -162.608
51.874, 64.944, -163.405
52.628, 64.779, -163.425
53.394, 64.686, -163.302
54.170, 64.577, -163.434
54.958, 64.431, -163.364
55.758, 64.290, -163.082
56.569, 64.147, -162.655
57.391, 64.013, -161.977
58.226, 63.906, -161.131
59.073, 63.821, -160.161
59.932, 63.757, -159.096
60.804, 63.707, -157.843
61.688, 63.708, -156.359
62.586, 63.770, -155.024
63.496, 63.829, -153.876
64.420, 63.911, -152.482
65.357, 64.079, -151.305
66.307, 64.242, -150.553
67.272, 64.428, -149.752
68.250, 64.640, -149.382
69.243, 64.828, -148.958
70.250, 65.096, -148.736
71.272, 65.313, -149.179
72.309, 65.482, -149.267
73.360, 65.732, -149.428
74.427, 65.965, -150.398
75.510, 66.081, -151.270
76.608, 66.266, -151.703
77.723, 66.477, -152.869
78.853, 66.636, -154.220
80.000, 66.746, -155.939
81.164, 66.788, -157.512
82.344, 66.785, -159.418
83.542, 66.644, -161.066
84.757, 66.423, -162.270
85.990, 66.139, -162.215
87.241, 66.000, -161.483
88.510, 65.912, -160.496
89.797, 65.969, -159.379
91.103, 66.085, -158.808
92.428, 66.214, -158.494
93.773, 66.334, -158.315
95.137, 66.516, -158.303
96.520, 66.617, -158.774
97.924, 66.714, -159.049
99.349, 66.844, -159.163
100.794, 66.955, -160.251
102.260, 66.991, -160.617
103.747, 67.101, -161.511
105.256, 67.121, -162.093
106.787, 67.250, -162.919
108.340, 67.210, -164.250
109.916, 67.441, -163.669
111.515, 67.232, -165.412
113.137, 67.467, -165.783
114.783, 67.453, -164.939
116.452, 67.313, -167.529
118.146, 67.407, -167.685
119.865, 67.508, -168.282
121.608, 67.424, -169.774
123.377, 67.409, -169.896
125.171, 67.475, -170.275
126.992, 67.415, -171.531
128.839, 67.298, -172.210
130.713, 67.298, -172.861
132.615, 67.327, -173.433
134.543, 67.290, -174.134
136.500, 67.203, -174.672
138.486, 67.126, -175.108
140.500, 67.164, -176.020
142.544, 67.124, -176.592
144.617, 67.057, -177.101
146.721, 67.002, -177.828
148.855, 66.895, -178.746
151.020, 66.855, -179.017
153.217, 66.821, -179.697
155.445, 66.705, 179.584
157.706, 66.614, 178.735
160.000, 66.441, 178.576
162.327, 66.218, 178.839
164.688, 66.079, 179.200
167.084, 66.060, 178.859
169.514, 66.027, 178.764
171.980, 65.942, 178.818
174.481, 65.870, 178.013
177.019, 65.775, 177.907
179.594, 65.550, 177.145
182.206, 65.707, 178.171
184.856, 65.425, 177.068
187.545, 65.571, 178.795
190.273, 65.121, 178.094
193.041, 65.027, 178.191
195.849, 65.025, 177.961
198.697, 64.915, 178.244
201.587, 64.742, 178.927
204.520, 64.555, 179.792
207.494, 64.433, -178.392
210.512, 64.361, -176.909
213.574, 64.513, -177.007
216.681, 64.391, -178.742
219.833, 64.282, -178.098
223.030, 63.911, -177.523
226.274, 63.746, -174.238
229.565, 63.886, -175.723
232.905, 63.825, -174.192
236.292, 63.788, -172.193
239.729, 63.649, -170.764
243.216, 63.819, -170.655
246.754, 63.785, -168.773
250.343, 63.901, -168.120
253.984, 63.972, -166.931
257.678, 64.031, -165.955
261.426, 64.130, -165.053
265.229, 64.238, -164.240
269.087, 64.354, -163.612
273.001, 64.492, -163.014
276.972, 64.627, -162.541
281.000, 64.752, -162.102
285.088, 64.879, -161.731
289.234, 65.015, -161.370
293.441, 65.139, -161.122
297.710, 65.292, -160.945
302.040, 65.430, -160.830
306.433, 65.585, -160.836
310.890, 65.727, -160.839
315.412, 65.867, -161.036
320.000, 66.023, -161.418
324.655, 66.149, -161.710
329.377, 66.291, -162.054
334.168, 66.431, -162.597
339.028, 66.534, -163.133
343.959, 66.692, -163.716
348.962, 66.841, -164.687
354.038, 66.978, -165.628
359.188, 67.119, -167.176
364.412, 67.224, -168.821
369.713, 67.298, -171.037
375.090, 67.281, -173.448
380.546, 67.179, -176.225
386.081, 66.901, -178.943
391.697, 66.504, 178.857
397.395, 65.941, 177.387
403.175, 65.334, 177.286
409.039, 64.728, 178.612
414.989, 64.251, -178.747
421.025, 63.991, -175.710
427.149, 63.855, -172.879
433.362, 63.852, -170.247
439.665, 63.862, -168.020
446.060, 64.023, -165.493
452.548, 64.248, -163.788
459.131, 64.448, -162.826
465.809, 64.609, -162.121
472.584, 64.717, -161.233
479.458, 64.892, -160.850
486.432, 65.009, -160.316
493.507, 65.135, -159.854
500.686, 65.262, -159.885
507.968, 65.371, -159.629
515.357, 65.481, -159.705
522.853, 65.542, -159.497
530.458, 65.625, -159.483
538.174, 65.701, -159.301
546.002, 65.756, -159.354
553.943, 65.827, -159.382
562.001, 65.896, -159.321
570.175, 65.950, -159.241
578.469, 66.009, -159.275
586.883, 66.047, -159.313
595.419, 66.105, -159.247
604.080, 66.137, -159.215
612.866, 66.177, -159.209
621.780, 66.214, -159.181
630.824, 66.260, -159.131
640.000, 66.289, -159.114
649.309, 66.331, -159.013
658.753, 66.375, -158.985
668.335, 66.410, -159.011
678.056, 66.439, -158.941
687.919, 66.478, -158.936
697.925, 66.505, -158.887
708.076, 66.545, -158.850
718.376, 66.573, -158.804
728.825, 66.600, -158.778
739.426, 66.628, -158.748
750.181, 66.653, -158.702
761.093, 66.682, -158.657
772.163, 66.705, -158.570
783.394, 66.733, -158.491
794.789, 66.751, -158.447
806.349, 66.774, -158.408
818.078, 66.796, -158.343
829.977, 66.815, -158.243
842.050, 66.834, -158.187
854.297, 66.851, -158.070
866.724, 66.871, -157.960
879.330, 66.883, -157.824
892.120, 66.900, -157.687
905.097, 66.917, -157.523
918.262, 66.934, -157.360
931.618, 66.952, -157.177
945.169, 66.968, -157.010
958.917, 66.988, -156.794
972.864, 67.008, -156.602
987.015, 67.027, -156.376
1001.371, 67.051, -156.156
1015.937, 67.068, -155.911
1030.714, 67.095, -155.673
1045.706, 67.118, -155.405
1060.916, 67.141, -155.146
1076.347, 67.164, -154.882
1092.003, 67.196, -154.575
1107.887, 67.222, -154.256
1124.001, 67.255, -153.925
1140.350, 67.289, -153.595
1156.937, 67.320, -153.256
1173.765, 67.354, -152.896
1190.838, 67.390, -152.490
1208.159, 67.435, -152.040
1225.732, 67.491, -151.557
1243.561, 67.554, -151.094
1261.649, 67.627, -150.666
1280.000, 67.704, -150.277
1298.618, 67.783, -149.936
1317.507, 67.869, -149.581
1336.670, 67.954, -149.245
1356.113, 68.040, -148.930
1375.838, 68.132, -148.687
1395.850, 68.228, -148.413
1416.153, 68.325, -148.172
1436.751, 68.429, -147.944
1457.649, 68.532, -147.782
1478.851, 68.643, -147.611
1500.362, 68.747, -147.508
1522.185, 68.862, -147.420
1544.326, 68.975, -147.388
1566.789, 69.086, -147.376
1589.578, 69.202, -147.445
1612.699, 69.313, -147.540
1636.156, 69.428, -147.666
1659.955, 69.542, -147.909
1684.099, 69.636, -148.064
1708.595, 69.763, -148.281
1733.447, 69.874, -148.721
1758.661, 69.958, -149.269
1784.241, 70.011, -149.695
1810.193, 70.070, -149.991
1836.523, 70.141, -150.290
1863.236, 70.223, -150.626
1890.338, 70.302, -151.089
1917.833, 70.369, -151.670
1945.729, 70.421, -152.298
1974.030, 70.455, -153.010
2002.743, 70.464, -153.758
2031.873, 70.449, -154.491
2061.428, 70.399, -155.202
2091.412, 70.321, -155.797
2121.832, 70.206, -156.226
2152.695, 70.067, -156.449
2184.007, 69.912, -156.381
2215.774, 69.731, -156.029
2248.003, 69.544, -155.174
2280.701, 69.358, -153.757
2313.874, 69.226, -151.872
2347.530, 69.134, -149.310
2381.676, 69.185, -145.955
2416.318, 69.425, -142.428
2451.464, 69.903, -139.304
2487.122, 70.588, -137.495
2523.298, 71.334, -137.710
2560.000, 71.924, -139.912
2597.236, 72.215, -142.755
2635.014, 72.266, -144.801
2673.341, 72.271, -145.314
2712.226, 72.421, -144.885
2751.676, 72.765, -144.738
2791.700, 73.192, -145.735
2832.306, 73.565, -147.891
2873.503, 73.799, -150.678
2915.299, 73.879, -153.503
2957.703, 73.831, -155.878
3000.724, 73.722, -157.354
3044.370, 73.678, -157.963
3088.652, 73.761, -158.449
3133.577, 73.907, -159.481
3179.156, 74.030, -161.007
3225.398, 74.093, -162.549
3272.312, 74.203, -163.782
3319.909, 74.360, -165.683
3368.198, 74.458, -167.911
3417.190, 74.529, -170.218
3466.894, 74.592, -172.731
3517.321, 74.674, -175.470
3568.482, 74.751, -178.773
3620.387, 74.809, 177.252
3673.046, 74.829, 172.408
3726.472, 74.779, 166.446
3780.675, 74.616, 158.999
3835.666, 74.272, 149.547
3891.457, 73.628, 137.196
3948.060, 72.484, 120.404
4005.486, 70.535, 96.108
4063.747, 67.717, 57.004
4122.855, 66.441, -2.764
4182.824, 68.702, -53.337
4243.664, 71.001, -83.114
4305.390, 72.456, -102.091
4368.013, 73.328, -115.454
4431.547, 73.836, -125.461
4496.005, 74.130, -133.191
4561.401, 74.310, -139.406
4627.749, 74.415, -144.867
4695.061, 74.386, -149.839
4763.352, 74.215, -153.797
4832.637, 74.015, -156.608
4902.929, 73.835, -158.652
4974.244, 73.694, -160.183
5046.596, 73.597, -161.643
5120.000, 73.467, -163.133
5194.472, 73.298, -164.231
5270.027, 73.127, -164.924
5346.682, 72.959, -165.125
5424.451, 72.852, -164.822
5503.352, 72.834, -164.460
5583.399, 72.847, -164.296
5664.612, 72.870, -164.029
5747.006, 72.944, -163.564
5830.598, 73.102, -163.111
5915.406, 73.345, -162.909
6001.447, 73.672, -163.203
6088.740, 74.068, -164.263
6177.303, 74.505, -166.372
6267.154, 74.932, -169.873
6358.312, 75.253, -175.001
6450.796, 75.337, 178.273
6544.625, 75.036, 170.661
6639.818, 74.366, 163.179
6736.397, 73.260, 155.047
6834.380, 71.249, 147.102
6933.789, 67.492, 143.030
7034.643, 61.011, 174.288
7136.964, 65.947, -133.998
7240.773, 70.414, -134.969
7346.093, 72.645, -142.526
7452.944, 73.785, -150.265
7561.350, 74.368, -156.276
7671.332, 74.799, -160.637
7782.915, 75.246, -164.889
7896.120, 75.608, -169.207
8010.971, 75.942, -173.478
8127.493, 76.293, -177.874
8245.711, 76.697, 176.947
8365.647, 77.109, 170.576
8487.328, 77.475, 162.129
8610.779, 77.562, 151.560
8736.026, 77.585, 137.947
8863.095, 75.970, 123.154
8992.011, 73.874, 113.084
9122.803, 71.365, 108.491
9255.497, 68.893, 109.760
9390.121, 66.862, 115.957
9526.704, 65.515, 124.028
9665.273, 64.585, 131.914
9805.857, 63.907, 139.609
9948.487, 63.382, 148.526
10093.191, 63.424, 159.665
10240.000, 64.612, 170.043
10388.944, 66.683, 171.061
10540.055, 68.086, 162.054
10693.363, 68.238, 149.873
10848.902, 67.286, 139.340
11006.703, 65.772, 134.067
11166.799, 64.107, 134.187
11329.224, 63.094, 139.480
11494.012, 62.894, 143.336
11661.195, 62.924, 143.507
11830.812, 62.734, 140.406
12002.895, 62.018, 136.389
12177.480, 60.913, 134.877
12354.606, 60.100, 136.096
12534.309, 59.599, 134.873
12716.624, 58.877, 131.752
12901.592, 57.959, 125.847
13089.250, 56.136, 117.514
13279.637, 53.032, 109.653
13472.794, 47.955, 111.673
13668.760, 43.384, 136.983
13867.577, 41.481, 167.782
14069.285, 40.144, -171.236
14273.928, 34.505, -127.165
14481.547, 44.248, -49.174
14692.186, 52.071, -55.469
14905.889, 56.113, -70.641
15122.700, 57.849, -85.391
15342.664, 58.355, -91.673
15565.829, 59.774, -89.377
15792.239, 62.528, -98.145
16021.942, 63.584, -115.543
16254.986, 63.394, -129.809
16491.422, 62.738, -138.706
16731.295, 62.514, -141.798
16974.656, 63.475, -151.242
17221.559, 63.275, -169.715
17472.053, 61.448, 172.486
17726.189, 58.371, 160.610
17984.021, 54.868, 161.320
18245.605, 52.390, 170.235
18510.994, 51.186, -178.085
18780.242, 51.331, -170.922
19053.408, 51.088, -175.939
19330.547, 48.947, -176.618
19611.715, 47.661, -166.506
19896.975, 47.481, -160.203
