* Measurement data measured by REW V5.19
* Source: ASIO MOTU M Series, In 1
* Format: 512k Log Swept Sine, 2 sweeps at -10.0 dBFS  With no timing reference
* Dated: 10 Sep, 2020 7:35:10 PM
* REW Settings:
*  C-weighting compensation: Off
*  Target level: 75.0 dB
* Note: ; 
* Measurement: Sep 10 19:35:10
* Smoothing: None
* Frequency Step: 1/48 octave
* Start Frequency: 10.1 Hz
*
* Freq(Hz), SPL(dB), Phase(degrees)
10.145, 58.747, -44.564
10.293, 58.972, -45.639
10.443, 59.200, -46.855
10.595, 59.415, -48.001
10.749, 59.621, -49.182
10.905, 59.816, -50.390
11.064, 60.000, -51.619
11.225, 60.168, -52.856
11.388, 60.320, -54.094
11.554, 60.454, -55.292
11.722, 60.570, -56.445
11.892, 60.671, -57.487
12.065, 60.758, -58.417
12.241, 60.844, -59.187
12.419, 60.934, -59.816
12.599, 61.043, -60.333
12.782, 61.174, -60.807
12.968, 61.336, -61.343
13.157, 61.517, -62.040
13.348, 61.714, -62.993
13.543, 61.898, -64.227
13.740, 62.059, -65.755
13.939, 62.170, -67.448
14.142, 62.229, -69.199
14.348, 62.226, -70.829
14.557, 62.188, -72.132
14.768, 62.128, -73.017
14.983, 62.104, -73.412
15.201, 62.145, -73.541
15.422, 62.282, -73.574
15.646, 62.507, -74.033
15.874, 62.779, -75.075
16.105, 63.053, -76.879
16.339, 63.256, -79.290
16.577, 63.358, -81.991
16.818, 63.340, -84.661
17.063, 63.209, -86.765
17.311, 63.034, -87.894
17.563, 62.895, -87.960
17.818, 62.888, -87.069
18.077, 63.096, -85.997
18.340, 63.475, -85.585
18.607, 63.940, -86.226
18.877, 64.387, -88.003
19.152, 64.730, -90.589
19.431, 64.930, -93.431
19.713, 64.999, -96.064
20.000, 64.972, -98.166
20.291, 64.896, -99.588
20.586, 64.816, -100.364
20.885, 64.757, -100.641
21.189, 64.721, -100.534
21.497, 64.712, -100.023
21.810, 64.761, -99.079
22.127, 64.915, -97.904
22.449, 65.195, -96.997
22.776, 65.558, -96.911
23.107, 65.909, -97.897
23.443, 66.152, -99.741
23.784, 66.229, -101.862
24.130, 66.153, -103.564
24.481, 66.008, -104.338
24.837, 65.912, -104.182
25.198, 65.952, -103.683
25.565, 66.119, -103.621
25.937, 66.330, -104.411
26.314, 66.497, -105.950
26.697, 66.578, -107.852
27.085, 66.576, -109.728
27.479, 66.515, -111.308
27.879, 66.434, -112.430
28.284, 66.380, -113.047
28.696, 66.403, -113.326
29.113, 66.523, -113.709
29.537, 66.693, -114.636
29.966, 66.821, -116.101
30.402, 66.852, -117.590
30.844, 66.820, -118.460
31.293, 66.841, -118.614
31.748, 66.982, -118.723
32.210, 67.176, -119.526
32.678, 67.291, -120.938
33.154, 67.281, -122.166
33.636, 67.246, -122.564
34.125, 67.324, -122.509
34.621, 67.511, -123.036
35.125, 67.657, -124.540
35.636, 67.652, -126.265
36.154, 67.553, -127.162
36.680, 67.530, -127.181
37.214, 67.661, -127.367
37.755, 67.814, -128.464
38.304, 67.853, -129.968
38.861, 67.807, -130.887
39.427, 67.811, -131.167
40.000, 67.901, -131.591
40.582, 67.971, -132.463
41.172, 67.976, -133.207
41.771, 67.992, -133.532
42.379, 68.065, -133.874
42.995, 68.147, -134.478
43.620, 68.233, -135.173
44.255, 68.344, -136.210
44.898, 68.401, -137.806
45.552, 68.339, -139.243
46.214, 68.272, -139.863
46.886, 68.312, -140.318
47.568, 68.372, -141.230
48.260, 68.387, -142.084
48.962, 68.424, -142.689
49.674, 68.473, -143.410
50.397, 68.495, -144.000
51.130, 68.553, -144.393
51.874, 68.634, -145.134
52.628, 68.655, -146.057
53.394, 68.653, -146.695
54.170, 68.686, -147.350
54.958, 68.705, -148.284
55.758, 68.679, -149.084
56.569, 68.689, -149.537
57.391, 68.763, -150.279
58.226, 68.787, -151.449
59.073, 68.746, -152.288
59.932, 68.738, -152.740
60.804, 68.790, -153.409
61.688, 68.796, -154.761
62.586, 68.656, -155.768
63.496, 68.626, -155.865
64.420, 68.695, -157.188
65.357, 68.563, -158.760
66.307, 68.453, -159.116
67.272, 68.472, -159.669
68.250, 68.433, -160.655
69.243, 68.304, -160.634
70.250, 68.409, -159.953
71.272, 68.509, -160.833
72.309, 68.534, -161.231
73.360, 68.546, -162.871
74.427, 68.340, -162.967
75.510, 68.509, -163.866
76.608, 68.195, -165.783
77.723, 68.077, -165.020
78.853, 67.852, -165.555
80.000, 67.746, -164.045
81.164, 67.618, -163.860
82.344, 67.616, -163.470
83.542, 67.224, -164.028
84.757, 67.218, -161.959
85.990, 67.189, -162.314
87.241, 67.330, -161.965
88.510, 67.405, -161.255
89.797, 67.923, -161.796
91.103, 67.944, -162.764
92.428, 68.127, -163.777
93.773, 67.891, -162.706
95.137, 68.135, -163.593
96.520, 67.910, -162.210
97.924, 68.280, -164.627
99.349, 68.037, -165.025
100.794, 68.235, -166.548
102.260, 68.118, -167.500
103.747, 68.103, -166.930
105.256, 68.199, -167.181
106.787, 68.214, -167.101
108.340, 68.267, -168.154
109.916, 68.247, -168.740
111.515, 68.244, -169.125
113.137, 68.178, -170.372
114.783, 68.228, -169.373
116.452, 68.164, -170.379
118.146, 68.137, -170.869
119.865, 68.155, -170.860
121.608, 68.135, -171.150
123.377, 68.082, -172.350
125.171, 68.012, -172.208
126.992, 68.065, -172.526
128.839, 68.018, -172.899
130.713, 68.145, -173.600
132.615, 67.900, -172.660
134.543, 67.980, -174.619
136.500, 67.941, -173.550
138.486, 68.008, -174.585
140.500, 67.814, -174.452
142.544, 67.898, -174.354
144.617, 67.964, -175.815
146.721, 67.868, -175.779
148.855, 67.942, -175.467
151.020, 67.870, -176.268
153.217, 67.842, -175.749
155.445, 67.791, -175.685
157.706, 67.752, -175.655
160.000, 67.774, -176.059
162.327, 67.694, -177.430
164.688, 67.713, -176.931
167.084, 67.782, -177.443
169.514, 67.826, -176.863
171.980, 67.853, -177.078
174.481, 67.818, -177.576
177.019, 67.831, -178.595
179.594, 67.823, -177.160
182.206, 68.024, -178.051
184.856, 67.868, -179.037
187.545, 67.787, -179.481
190.273, 67.842, -179.621
193.041, 67.824, -179.987
195.849, 67.724, 179.960
198.697, 67.822, -179.885
201.587, 67.767, 179.405
204.520, 67.669, 179.547
207.494, 67.759, 179.635
210.512, 67.694, 178.683
213.574, 67.673, 178.436
216.681, 67.681, 179.078
219.833, 67.706, 177.615
223.030, 67.663, 177.416
226.274, 67.714, 177.470
229.565, 67.739, 176.464
232.905, 67.727, 175.905
236.292, 67.715, 175.567
239.729, 67.581, 174.858
243.216, 67.583, 174.550
246.754, 67.599, 173.322
250.343, 67.487, 172.955
253.984, 67.312, 172.660
257.678, 67.289, 172.255
261.426, 67.052, 172.332
265.229, 67.038, 172.254
269.087, 66.793, 171.853
273.001, 66.787, 172.508
276.972, 66.854, 172.276
281.000, 66.852, 172.284
285.088, 66.896, 172.630
289.234, 66.785, 171.745
293.441, 66.810, 171.101
297.710, 66.946, 170.913
302.040, 66.433, 171.616
306.433, 66.455, 170.716
310.890, 66.591, 170.120
315.412, 66.167, 170.703
320.000, 66.192, 170.366
324.655, 66.134, 170.885
329.377, 66.087, 170.380
334.168, 65.996, 169.999
339.028, 65.920, 170.616
343.959, 65.784, 170.867
348.962, 65.559, 171.016
354.038, 65.513, 170.558
359.188, 65.538, 171.350
364.412, 65.450, 171.049
369.713, 65.416, 171.772
375.090, 65.237, 171.696
380.546, 65.131, 172.054
386.081, 65.168, 173.054
391.697, 65.047, 172.401
397.395, 65.043, 172.950
403.175, 64.898, 173.021
409.039, 64.807, 173.775
414.989, 64.652, 173.598
421.025, 64.703, 173.685
427.149, 64.527, 175.190
433.362, 64.626, 175.642
439.665, 64.626, 175.923
446.060, 64.457, 175.556
452.548, 64.606, 176.785
459.131, 64.268, 177.227
465.809, 64.351, 177.142
472.584, 64.437, 177.428
479.458, 64.352, 177.834
486.432, 64.283, 177.715
493.507, 64.278, 178.141
500.686, 64.189, 179.665
507.968, 64.220, 179.497
515.357, 63.965, 179.668
522.853, 63.829, -179.500
530.458, 63.650, -178.858
538.174, 63.845, -178.364
546.002, 63.752, -178.573
553.943, 63.516, -177.423
562.001, 63.692, -176.704
570.175, 63.587, -174.741
578.469, 63.688, -173.606
586.883, 63.754, -173.131
595.419, 63.794, -173.212
604.080, 63.684, -172.095
612.866, 63.804, -171.827
621.780, 63.796, -172.000
630.824, 63.881, -169.888
640.000, 63.784, -169.528
649.309, 63.874, -170.091
658.753, 63.944, -169.209
668.335, 64.082, -168.678
678.056, 64.137, -168.668
687.919, 63.956, -166.730
697.925, 63.805, -166.212
708.076, 63.923, -166.289
718.376, 63.900, -166.576
728.825, 64.000, -165.558
739.426, 63.920, -166.330
750.181, 63.865, -166.125
761.093, 63.469, -163.823
772.163, 63.992, -162.165
783.394, 63.975, -163.124
794.789, 63.951, -162.688
806.349, 63.826, -163.444
818.078, 64.081, -162.950
829.977, 64.096, -162.375
842.050, 63.912, -160.166
854.297, 64.169, -159.015
866.724, 64.169, -158.293
879.330, 64.137, -157.497
892.120, 64.005, -156.324
905.097, 64.079, -156.472
918.262, 64.213, -156.035
931.618, 64.517, -155.404
945.169, 64.327, -153.537
958.917, 64.493, -154.355
972.864, 64.701, -153.012
987.015, 64.846, -151.730
1001.371, 65.073, -152.628
1015.937, 64.876, -152.532
1030.714, 64.911, -151.933
1045.706, 65.265, -151.938
1060.916, 65.263, -153.131
1076.347, 65.292, -152.063
1092.003, 65.228, -151.237
1107.887, 65.267, -151.160
1124.001, 65.282, -151.973
1140.350, 65.348, -151.471
1156.937, 65.419, -148.430
1173.765, 65.538, -150.426
1190.838, 65.527, -148.344
1208.159, 65.772, -147.925
1225.732, 65.718, -147.998
1243.561, 65.716, -145.571
1261.649, 65.830, -145.803
1280.000, 66.049, -146.141
1298.618, 66.083, -144.444
1317.507, 66.309, -143.267
1336.670, 66.380, -143.611
1356.113, 66.237, -144.633
1375.838, 66.569, -143.357
1395.850, 66.541, -142.727
1416.153, 66.949, -142.829
1436.751, 67.053, -142.497
1457.649, 66.944, -142.007
1478.851, 67.160, -141.826
1500.362, 67.292, -141.937
1522.185, 67.499, -141.479
1544.326, 67.642, -140.991
1566.789, 67.908, -140.982
1589.578, 67.719, -141.910
1612.699, 67.997, -141.515
1636.156, 68.046, -141.663
1659.955, 68.247, -142.729
1684.099, 68.558, -140.639
1708.595, 68.535, -140.044
1733.447, 68.562, -142.812
1758.661, 68.471, -141.545
1784.241, 68.655, -142.810
1810.193, 68.882, -143.030
1836.523, 68.824, -143.552
1863.236, 68.968, -143.039
1890.338, 68.787, -142.444
1917.833, 69.205, -140.675
1945.729, 69.450, -140.125
1974.030, 69.304, -140.504
2002.743, 69.318, -140.894
2031.873, 69.671, -142.424
2061.428, 69.783, -141.388
2091.412, 69.582, -139.413
2121.832, 70.038, -140.425
2152.695, 70.171, -140.696
2184.007, 70.275, -140.037
2215.774, 70.448, -141.067
2248.003, 70.549, -140.199
2280.701, 70.660, -142.009
2313.874, 70.809, -142.089
2347.530, 70.858, -142.379
2381.676, 70.894, -142.289
2416.318, 70.833, -143.213
2451.464, 70.979, -141.468
2487.122, 71.360, -144.801
2523.298, 71.358, -144.171
2560.000, 71.459, -142.630
2597.236, 71.685, -147.058
2635.014, 71.950, -144.476
2673.341, 71.837, -144.514
2712.226, 72.015, -146.148
2751.676, 72.277, -144.940
2791.700, 72.714, -147.109
2832.306, 72.705, -147.805
2873.503, 72.687, -149.774
2915.299, 72.932, -151.367
2957.703, 72.828, -151.548
3000.724, 73.323, -152.218
3044.370, 73.031, -154.079
3088.652, 73.119, -153.634
3133.577, 73.150, -155.337
3179.156, 72.837, -154.563
3225.398, 73.120, -157.442
3272.312, 73.346, -157.779
3319.909, 72.941, -160.009
3368.198, 73.062, -158.398
3417.190, 73.131, -160.036
3466.894, 73.005, -158.736
3517.321, 72.926, -158.558
3568.482, 73.038, -158.272
3620.387, 72.969, -159.130
3673.046, 73.403, -160.598
3726.472, 73.146, -158.142
3780.675, 73.191, -160.818
3835.666, 73.162, -160.025
3891.457, 73.586, -158.193
3948.060, 73.988, -159.206
4005.486, 74.130, -160.342
4063.747, 74.506, -161.945
4122.855, 74.457, -164.629
4182.824, 74.653, -164.752
4243.664, 74.529, -165.628
4305.390, 74.496, -170.155
4368.013, 74.567, -169.378
4431.547, 74.330, -171.043
4496.005, 74.207, -171.783
4561.401, 74.249, -173.732
4627.749, 74.118, -172.479
4695.061, 74.112, -175.710
4763.352, 74.056, -174.080
4832.637, 74.181, -173.554
4902.929, 73.996, -172.964
4974.244, 74.275, -172.676
5046.596, 74.478, -172.563
5120.000, 74.947, -172.748
5194.472, 75.659, -173.407
5270.027, 76.178, -176.910
5346.682, 76.559, 179.601
5424.451, 76.715, 174.315
5503.352, 76.754, 168.142
5583.399, 76.580, 162.859
5664.612, 76.491, 157.548
5747.006, 75.948, 152.303
5830.598, 75.387, 147.546
5915.406, 74.786, 142.592
6001.447, 74.001, 139.968
6088.740, 73.042, 139.235
6177.303, 72.201, 136.392
6267.154, 71.244, 136.736
6358.312, 70.440, 135.703
6450.796, 69.717, 135.808
6544.625, 68.558, 137.023
6639.818, 67.561, 143.492
6736.397, 66.768, 146.346
6834.380, 66.076, 153.729
6933.789, 65.852, 158.611
7034.643, 65.791, 166.359
7136.964, 65.312, 176.145
7240.773, 66.800, -177.921
7346.093, 67.693, -174.077
7452.944, 68.332, -173.461
7561.350, 69.548, -171.417
7671.332, 70.016, -171.363
7782.915, 70.638, -176.104
7896.120, 71.070, -179.359
8010.971, 71.501, 178.673
8127.493, 71.664, 172.065
8245.711, 71.553, 168.681
8365.647, 71.774, 162.796
8487.328, 71.414, 158.865
8610.779, 71.089, 153.251
8736.026, 70.712, 145.834
8863.095, 69.254, 140.084
8992.011, 68.038, 140.570
9122.803, 66.938, 137.974
9255.497, 65.475, 142.032
9390.121, 64.160, 148.087
9526.704, 63.763, 154.609
9665.273, 62.550, 159.560
9805.857, 62.869, 171.857
9948.487, 63.346, -175.905
10093.191, 64.086, -171.207
10240.000, 65.570, -167.759
10388.944, 66.787, -163.584
10540.055, 68.059, -166.139
10693.363, 68.963, -171.765
10848.902, 69.957, -178.712
11006.703, 70.147, 172.758
11166.799, 70.276, 161.818
11329.224, 69.582, 154.223
11494.012, 68.752, 146.889
11661.195, 67.723, 142.956
11830.812, 66.451, 137.456
12002.895, 65.168, 137.545
12177.480, 63.731, 136.868
12354.606, 62.405, 141.620
12534.309, 60.786, 140.175
12716.624, 59.525, 154.373
12901.592, 58.945, 161.080
13089.250, 60.482, 170.224
13279.637, 60.454, 179.235
13472.794, 61.111, 176.402
13668.760, 61.113, 177.694
13867.577, 61.440, 177.953
14069.285, 61.306, 174.972
14273.928, 61.211, 167.965
14481.547, 60.407, 168.945
14692.186, 60.104, 162.345
14905.889, 58.772, 151.828
15122.700, 53.469, 152.961
15342.664, 49.086, 177.401
15565.829, 50.393, -128.877
15792.239, 54.328, -120.912
16021.942, 56.380, -118.244
16254.986, 58.450, -109.596
16491.422, 60.625, -111.912
16731.295, 63.213, -113.658
16974.656, 65.418, -124.021
17221.559, 66.525, -139.567
17472.053, 66.305, -155.529
17726.189, 65.449, -167.443
17984.021, 64.131, -175.003
18245.605, 62.909, -174.980
18510.994, 61.998, -174.848
18780.242, 62.207, -177.525
19053.408, 62.107, -178.540
19330.547, 61.358, 176.498
19611.715, 60.743, 173.353
19896.975, 59.943, 167.277
