* Measurement data measured by REW V5.19
* Source: ASIO MOTU M Series, In 1
* Format: 512k Log Swept Sine, 2 sweeps at -10.0 dBFS  With no timing reference
* Dated: 10 Sep, 2020 7:34:24 PM
* REW Settings:
*  C-weighting compensation: Off
*  Target level: 75.0 dB
* Note: ; 
* Measurement: Sep 10 19:34:24
* Smoothing: None
* Frequency Step: 1/48 octave
* Start Frequency: 10.1 Hz
*
* Freq(Hz), SPL(dB), Phase(degrees)
10.145, 59.244, -43.918
10.293, 59.320, -45.077
10.443, 59.397, -46.224
10.595, 59.467, -47.025
10.749, 59.542, -47.669
10.905, 59.634, -48.161
11.064, 59.743, -48.532
11.225, 59.879, -48.866
11.388, 60.040, -49.173
11.554, 60.223, -49.574
11.722, 60.428, -50.066
11.892, 60.640, -50.727
12.065, 60.860, -51.552
12.241, 61.071, -52.545
12.419, 61.272, -53.696
12.599, 61.454, -54.961
12.782, 61.616, -56.319
12.968, 61.756, -57.723
13.157, 61.873, -59.137
13.348, 61.969, -60.533
13.543, 62.048, -61.865
13.740, 62.111, -63.116
13.939, 62.168, -64.242
14.142, 62.223, -65.235
14.348, 62.287, -66.069
14.557, 62.376, -66.788
14.768, 62.498, -67.420
14.983, 62.667, -68.100
15.201, 62.877, -68.956
15.422, 63.126, -70.106
15.646, 63.386, -71.694
15.874, 63.630, -73.705
16.105, 63.833, -76.128
16.339, 63.961, -78.760
16.577, 64.004, -81.355
16.818, 63.962, -83.672
17.063, 63.856, -85.340
17.311, 63.752, -86.164
17.563, 63.712, -86.212
17.818, 63.801, -85.717
18.077, 64.051, -85.381
18.340, 64.400, -85.761
18.607, 64.768, -87.043
18.877, 65.067, -89.139
19.152, 65.229, -91.632
19.431, 65.237, -93.861
19.713, 65.138, -95.249
20.000, 65.027, -95.500
20.291, 65.017, -94.799
20.586, 65.182, -93.840
20.885, 65.494, -93.555
21.189, 65.830, -94.453
21.497, 66.053, -96.291
21.810, 66.094, -98.343
22.127, 65.969, -99.748
22.449, 65.787, -99.879
22.776, 65.711, -98.803
23.107, 65.853, -97.449
23.443, 66.176, -97.003
23.784, 66.530, -98.025
24.130, 66.771, -100.217
24.481, 66.832, -102.811
24.837, 66.739, -105.046
25.198, 66.577, -106.500
25.565, 66.441, -107.242
25.937, 66.376, -107.658
26.314, 66.372, -108.067
26.697, 66.407, -108.526
27.085, 66.486, -108.997
27.479, 66.624, -109.616
27.879, 66.801, -110.657
28.284, 66.956, -112.188
28.696, 67.034, -113.901
29.113, 67.037, -115.291
29.537, 67.026, -116.060
29.966, 67.066, -116.378
30.402, 67.166, -116.626
30.844, 67.292, -116.984
31.293, 67.428, -117.383
31.748, 67.591, -117.874
32.210, 67.769, -118.762
32.678, 67.894, -120.192
33.154, 67.896, -121.780
33.636, 67.797, -122.817
34.125, 67.713, -123.023
34.621, 67.740, -122.967
35.125, 67.851, -123.460
35.636, 67.942, -124.613
36.154, 67.962, -125.956
36.680, 67.946, -127.111
37.214, 67.936, -128.044
37.755, 67.949, -128.851
38.304, 67.993, -129.605
38.861, 68.057, -130.428
39.427, 68.110, -131.274
40.000, 68.152, -131.833
40.582, 68.250, -132.101
41.172, 68.410, -132.729
41.771, 68.510, -133.920
42.379, 68.495, -134.811
42.995, 68.518, -134.966
43.620, 68.652, -135.672
44.255, 68.661, -137.496
44.898, 68.425, -138.578
45.552, 68.284, -137.635
46.214, 68.512, -137.207
46.886, 68.720, -139.348
47.568, 68.573, -141.690
48.260, 68.383, -141.777
48.962, 68.534, -141.429
49.674, 68.770, -142.993
50.397, 68.774, -145.081
51.130, 68.682, -145.910
51.874, 68.707, -146.016
52.628, 68.805, -146.433
53.394, 68.880, -147.116
54.170, 68.920, -147.836
54.958, 68.928, -148.494
55.758, 68.930, -149.006
56.569, 68.948, -149.606
57.391, 68.951, -150.339
58.226, 68.962, -150.997
59.073, 69.004, -151.843
59.932, 69.028, -152.887
60.804, 69.040, -153.920
61.688, 69.024, -154.929
62.586, 68.992, -155.615
63.496, 68.973, -156.099
64.420, 69.002, -156.265
65.357, 69.133, -157.270
66.307, 69.053, -159.106
67.272, 68.918, -159.596
68.250, 68.861, -160.501
69.243, 68.734, -160.560
70.250, 68.845, -160.986
71.272, 68.771, -162.356
72.309, 68.673, -162.763
73.360, 68.561, -162.671
74.427, 68.698, -162.738
75.510, 68.619, -164.406
76.608, 68.611, -165.205
77.723, 68.282, -167.250
78.853, 68.206, -164.679
80.000, 68.544, -166.554
81.164, 68.315, -167.366
82.344, 68.334, -166.349
83.542, 68.514, -166.297
84.757, 68.462, -167.767
85.990, 68.283, -167.838
87.241, 68.274, -168.753
88.510, 67.988, -170.492
89.797, 67.707, -169.839
91.103, 67.604, -168.123
92.428, 67.818, -167.141
93.773, 67.722, -166.743
95.137, 67.628, -165.905
96.520, 67.696, -163.639
97.924, 67.987, -166.065
99.349, 67.813, -166.227
100.794, 68.110, -167.779
102.260, 68.060, -166.033
103.747, 68.490, -167.687
105.256, 68.279, -166.552
106.787, 68.414, -167.111
108.340, 68.324, -167.749
109.916, 68.281, -168.841
111.515, 68.333, -169.864
113.137, 68.242, -169.838
114.783, 68.426, -170.631
116.452, 68.319, -171.664
118.146, 68.334, -171.280
119.865, 68.273, -172.576
121.608, 68.254, -173.459
123.377, 68.191, -172.720
125.171, 68.230, -173.254
126.992, 68.260, -173.729
128.839, 68.202, -174.211
130.713, 68.090, -174.304
132.615, 68.179, -174.464
134.543, 67.968, -175.057
136.500, 67.953, -175.392
138.486, 68.112, -175.531
140.500, 68.045, -176.166
142.544, 68.084, -176.367
144.617, 68.047, -175.659
146.721, 67.954, -176.911
148.855, 67.998, -176.973
151.020, 68.024, -177.439
153.217, 67.994, -177.164
155.445, 67.865, -176.234
157.706, 67.801, -177.232
160.000, 67.829, -177.773
162.327, 67.945, -177.273
164.688, 67.875, -177.652
167.084, 67.921, -177.801
169.514, 67.903, -178.215
171.980, 67.905, -177.351
174.481, 67.967, -177.791
177.019, 67.843, -178.434
179.594, 67.906, -178.620
182.206, 67.898, -179.068
184.856, 67.978, -179.497
187.545, 67.954, -179.697
190.273, 67.950, -179.715
193.041, 67.933, 179.808
195.849, 67.915, 179.747
198.697, 67.943, 179.360
201.587, 67.952, 178.643
204.520, 67.898, 178.803
207.494, 67.831, 178.432
210.512, 67.924, 178.129
213.574, 67.889, 178.036
216.681, 68.000, 177.661
219.833, 67.971, 176.587
223.030, 67.981, 176.175
226.274, 68.005, 175.712
229.565, 67.989, 174.244
232.905, 67.895, 174.386
236.292, 67.875, 173.734
239.729, 67.862, 172.391
243.216, 67.782, 172.519
246.754, 67.657, 171.066
250.343, 67.613, 171.116
253.984, 67.506, 170.199
257.678, 67.300, 169.727
261.426, 67.172, 169.939
265.229, 67.122, 169.298
269.087, 66.964, 170.126
273.001, 66.995, 170.427
276.972, 66.957, 170.329
281.000, 66.945, 170.832
285.088, 66.875, 170.353
289.234, 66.803, 170.041
293.441, 66.783, 169.789
297.710, 66.714, 169.540
302.040, 66.642, 168.968
306.433, 66.481, 168.967
310.890, 66.445, 168.698
315.412, 66.342, 169.070
320.000, 66.297, 169.244
324.655, 66.173, 169.066
329.377, 66.012, 169.649
334.168, 65.950, 168.813
339.028, 65.894, 169.409
343.959, 65.744, 169.750
348.962, 65.668, 169.541
354.038, 65.615, 169.204
359.188, 65.594, 169.328
364.412, 65.523, 170.203
369.713, 65.444, 170.375
375.090, 65.314, 170.491
380.546, 65.340, 171.620
386.081, 65.205, 171.198
391.697, 65.104, 171.669
397.395, 65.009, 170.912
403.175, 64.899, 172.319
409.039, 64.829, 171.852
414.989, 64.750, 172.741
421.025, 64.705, 174.003
427.149, 64.642, 173.669
433.362, 64.757, 174.112
439.665, 64.713, 175.351
446.060, 64.563, 175.134
452.548, 64.544, 175.616
459.131, 64.455, 176.090
465.809, 64.518, 176.126
472.584, 64.497, 176.609
479.458, 64.454, 176.616
486.432, 64.298, 177.206
493.507, 64.219, 177.440
500.686, 64.373, 178.378
507.968, 64.162, 178.868
515.357, 64.072, 179.013
522.853, 64.063, 178.782
530.458, 63.903, -179.704
538.174, 64.060, -179.941
546.002, 63.833, -178.925
553.943, 63.857, -178.320
562.001, 63.770, -176.781
570.175, 63.810, -176.969
578.469, 63.785, -176.099
586.883, 63.899, -176.805
595.419, 63.800, -176.786
604.080, 64.056, -174.862
612.866, 63.591, -176.297
621.780, 63.872, -175.317
630.824, 63.569, -173.568
640.000, 63.543, -172.817
649.309, 63.499, -171.905
658.753, 64.051, -173.846
668.335, 64.082, -173.792
678.056, 63.882, -170.515
687.919, 63.465, -170.043
697.925, 63.241, -168.554
708.076, 63.260, -167.955
718.376, 63.260, -165.723
728.825, 63.486, -164.190
739.426, 63.569, -165.078
750.181, 63.679, -164.912
761.093, 63.726, -163.582
772.163, 63.812, -162.519
783.394, 63.992, -165.150
794.789, 63.994, -162.694
806.349, 64.075, -162.736
818.078, 63.711, -163.000
829.977, 63.725, -163.387
842.050, 64.126, -159.736
854.297, 64.231, -162.293
866.724, 63.753, -161.759
879.330, 64.070, -159.188
892.120, 63.978, -158.373
905.097, 63.955, -156.085
918.262, 64.109, -157.253
931.618, 64.106, -155.300
945.169, 64.125, -154.293
958.917, 64.237, -154.387
972.864, 64.288, -152.486
987.015, 65.033, -153.942
1001.371, 64.972, -152.928
1015.937, 64.881, -153.806
1030.714, 65.037, -153.393
1045.706, 65.147, -154.226
1060.916, 65.043, -153.514
1076.347, 65.094, -151.387
1092.003, 65.374, -152.440
1107.887, 65.281, -152.916
1124.001, 65.150, -151.447
1140.350, 65.221, -152.505
1156.937, 65.174, -150.121
1173.765, 65.360, -150.235
1190.838, 65.331, -147.031
1208.159, 65.535, -148.528
1225.732, 65.561, -148.608
1243.561, 65.807, -146.408
1261.649, 65.624, -146.576
1280.000, 65.829, -145.501
1298.618, 65.968, -147.055
1317.507, 66.130, -146.820
1336.670, 66.471, -145.782
1356.113, 66.514, -144.227
1375.838, 66.411, -144.396
1395.850, 66.308, -144.246
1416.153, 66.605, -141.916
1436.751, 66.783, -144.248
1457.649, 66.993, -142.559
1478.851, 67.177, -141.826
1500.362, 67.033, -142.885
1522.185, 67.165, -142.879
1544.326, 67.441, -142.396
1566.789, 67.597, -143.182
1589.578, 67.514, -143.799
1612.699, 67.848, -141.431
1636.156, 67.945, -140.903
1659.955, 68.340, -142.385
1684.099, 67.918, -141.564
1708.595, 68.131, -141.429
1733.447, 68.584, -144.435
1758.661, 68.413, -142.211
1784.241, 68.578, -143.679
1810.193, 68.473, -143.905
1836.523, 68.565, -143.158
1863.236, 68.638, -143.019
1890.338, 68.755, -142.975
1917.833, 68.855, -142.031
1945.729, 69.156, -141.558
1974.030, 69.016, -141.983
2002.743, 69.129, -141.061
2031.873, 69.549, -140.894
2061.428, 69.728, -140.976
2091.412, 69.720, -139.306
2121.832, 69.954, -140.486
2152.695, 69.734, -139.400
2184.007, 69.972, -139.310
2215.774, 70.290, -139.798
2248.003, 70.444, -140.241
2280.701, 70.583, -143.085
2313.874, 70.442, -138.410
2347.530, 70.659, -143.231
2381.676, 70.958, -141.895
2416.318, 71.171, -143.109
2451.464, 70.908, -141.431
2487.122, 71.510, -142.082
2523.298, 71.485, -141.879
2560.000, 71.675, -143.936
2597.236, 72.078, -144.102
2635.014, 71.928, -143.981
2673.341, 71.722, -146.326
2712.226, 72.160, -146.762
2751.676, 72.394, -145.019
2791.700, 72.830, -147.297
2832.306, 72.770, -147.058
2873.503, 73.208, -148.909
2915.299, 72.722, -150.176
2957.703, 73.144, -152.011
3000.724, 73.513, -153.709
3044.370, 73.217, -155.232
3088.652, 73.276, -154.824
3133.577, 73.282, -156.049
3179.156, 72.894, -157.219
3225.398, 73.214, -157.381
3272.312, 73.149, -159.603
3319.909, 73.097, -160.671
3368.198, 73.086, -160.991
3417.190, 72.947, -161.921
3466.894, 72.887, -160.655
3517.321, 73.122, -162.218
3568.482, 73.048, -163.207
3620.387, 73.024, -161.342
3673.046, 73.093, -160.999
3726.472, 73.086, -159.976
3780.675, 73.249, -162.053
3835.666, 73.088, -160.757
3891.457, 73.353, -162.372
3948.060, 73.713, -161.531
4005.486, 74.048, -160.943
4063.747, 74.205, -163.151
4122.855, 74.477, -165.409
4182.824, 74.373, -168.150
4243.664, 74.533, -168.635
4305.390, 74.323, -170.399
4368.013, 74.194, -172.456
4431.547, 74.394, -173.539
4496.005, 74.256, -175.440
4561.401, 73.977, -174.412
4627.749, 73.944, -175.367
4695.061, 73.990, -175.600
4763.352, 73.798, -175.721
4832.637, 74.112, -176.958
4902.929, 73.976, -175.535
4974.244, 74.183, -173.941
5046.596, 74.332, -175.783
5120.000, 74.916, -176.478
5194.472, 75.255, -177.050
5270.027, 75.724, 178.895
5346.682, 76.326, 176.472
5424.451, 76.482, 170.036
5503.352, 76.471, 165.528
5583.399, 76.310, 159.853
5664.612, 76.143, 155.274
5747.006, 75.695, 149.678
5830.598, 75.127, 146.355
5915.406, 74.261, 141.431
6001.447, 73.648, 138.614
6088.740, 73.041, 136.290
6177.303, 72.210, 132.813
6267.154, 71.303, 134.885
6358.312, 70.372, 133.419
6450.796, 69.233, 135.012
6544.625, 67.982, 133.726
6639.818, 67.739, 138.518
6736.397, 66.609, 141.970
6834.380, 66.001, 146.282
6933.789, 65.503, 152.713
7034.643, 65.176, 160.717
7136.964, 65.417, 170.373
7240.773, 65.378, 175.253
7346.093, 66.022, -178.809
7452.944, 67.087, -177.984
7561.350, 67.902, -176.480
7671.332, 68.354, 179.313
7782.915, 68.998, -179.518
7896.120, 69.425, 177.624
8010.971, 69.773, 177.829
8127.493, 70.052, 174.486
8245.711, 70.005, 172.389
8365.647, 70.430, 168.921
8487.328, 70.496, 165.212
8610.779, 70.347, 159.864
8736.026, 70.437, 152.613
8863.095, 69.480, 145.881
8992.011, 67.904, 144.304
9122.803, 66.733, 140.705
9255.497, 65.209, 141.864
9390.121, 64.323, 143.436
9526.704, 63.281, 150.457
9665.273, 61.777, 157.289
9805.857, 61.795, 166.878
9948.487, 61.438, 179.790
10093.191, 62.178, -168.510
10240.000, 62.982, -158.933
10388.944, 65.152, -155.039
10540.055, 66.815, -153.874
10693.363, 68.774, -160.698
10848.902, 70.029, -173.292
11006.703, 70.100, 174.734
11166.799, 69.906, 165.172
11329.224, 68.892, 153.731
11494.012, 67.808, 149.208
11661.195, 66.139, 143.282
11830.812, 64.308, 142.607
12002.895, 62.350, 144.906
12177.480, 60.324, 156.484
12354.606, 60.645, 170.213
12534.309, 60.679, -176.209
12716.624, 61.433, -179.127
12901.592, 62.411, -173.324
13089.250, 62.999, -174.175
13279.637, 63.116, -175.160
13472.794, 63.442, -178.518
13668.760, 63.784, 179.285
13867.577, 64.004, 173.707
14069.285, 63.738, 172.502
14273.928, 62.915, 164.621
14481.547, 62.068, 160.986
14692.186, 60.736, 155.303
14905.889, 58.224, 151.810
15122.700, 55.847, 165.628
15342.664, 53.444, -169.243
15565.829, 55.834, -150.847
15792.239, 57.137, -146.330
16021.942, 58.083, -141.791
16254.986, 58.662, -138.283
16491.422, 60.118, -130.925
16731.295, 62.368, -127.523
16974.656, 64.912, -135.481
17221.559, 65.921, -150.769
17472.053, 65.356, -167.744
17726.189, 64.180, -176.328
17984.021, 62.580, -178.746
18245.605, 61.491, -175.945
18510.994, 61.210, -171.472
18780.242, 61.793, -173.307
19053.408, 62.049, 178.990
19330.547, 61.646, 174.393
19611.715, 61.335, 164.135
19896.975, 59.811, 159.729
