* Measurement data measured by REW V5.19
* Source: ASIO MOTU M Series, In 1
* Format: 1M Log Swept Sine, 2 sweeps at -3.0 dBFS  With no timing reference
* Dated: 19 Sep, 2020 4:07:11 PM
* REW Settings:
*  C-weighting compensation: Off
*  Target level: 75.0 dB
* Note: ; 
* Measurement: Sep 19 16:07:11
* Smoothing: None
* Frequency Step: 1/48 octave
* Start Frequency: 10.1 Hz
*
* Freq(Hz), SPL(dB), Phase(degrees)
10.145, 62.540, -89.205
10.293, 62.564, -90.607
10.443, 62.587, -92.090
10.595, 62.608, -93.306
10.749, 62.628, -94.460
10.905, 62.654, -95.577
11.064, 62.681, -96.656
11.225, 62.710, -97.732
11.388, 62.739, -98.791
11.554, 62.763, -99.827
11.722, 62.783, -100.830
11.892, 62.800, -101.756
12.065, 62.815, -102.601
12.241, 62.837, -103.334
12.419, 62.868, -103.968
12.599, 62.919, -104.529
12.782, 62.991, -105.061
12.968, 63.089, -105.634
13.157, 63.203, -106.303
13.348, 63.333, -107.124
13.543, 63.459, -108.106
13.740, 63.578, -109.254
13.939, 63.673, -110.497
14.142, 63.745, -111.786
14.348, 63.788, -113.038
14.557, 63.812, -114.173
14.768, 63.820, -115.155
14.983, 63.829, -115.955
15.201, 63.848, -116.614
15.422, 63.885, -117.162
15.646, 63.942, -117.697
15.874, 64.015, -118.262
16.105, 64.100, -118.902
16.339, 64.186, -119.627
16.577, 64.271, -120.418
16.818, 64.350, -121.261
17.063, 64.424, -122.130
17.311, 64.493, -123.025
17.563, 64.556, -123.948
17.818, 64.612, -124.898
18.077, 64.657, -125.860
18.340, 64.689, -126.795
18.607, 64.711, -127.664
18.877, 64.731, -128.439
19.152, 64.756, -129.117
19.431, 64.796, -129.755
19.713, 64.851, -130.430
20.000, 64.912, -131.196
20.291, 64.967, -132.062
20.586, 65.007, -132.980
20.885, 65.029, -133.862
21.189, 65.040, -134.634
21.497, 65.057, -135.297
21.810, 65.086, -135.931
22.127, 65.120, -136.630
22.449, 65.141, -137.409
22.776, 65.133, -138.152
23.107, 65.098, -138.652
23.443, 65.072, -138.756
23.784, 65.107, -138.546
24.130, 65.236, -138.400
24.481, 65.435, -138.808
24.837, 65.631, -140.027
25.198, 65.737, -141.889
25.565, 65.707, -143.878
25.937, 65.560, -145.380
26.314, 65.376, -146.016
26.697, 65.262, -145.931
27.085, 65.264, -145.772
27.479, 65.333, -146.144
27.879, 65.370, -147.088
28.284, 65.326, -148.126
28.696, 65.232, -148.757
29.113, 65.171, -148.903
29.537, 65.192, -149.017
29.966, 65.255, -149.582
30.402, 65.285, -150.589
30.844, 65.247, -151.612
31.293, 65.183, -152.295
31.748, 65.153, -152.743
32.210, 65.160, -153.322
32.678, 65.156, -154.138
33.154, 65.118, -154.923
33.636, 65.088, -155.484
34.125, 65.107, -156.094
34.621, 65.140, -157.155
35.125, 65.102, -158.571
35.636, 64.972, -159.725
36.154, 64.834, -160.145
36.680, 64.791, -160.142
37.214, 64.852, -160.461
37.755, 64.930, -161.430
38.304, 64.956, -162.813
38.861, 64.922, -164.235
39.427, 64.853, -165.540
40.000, 64.768, -166.761
40.582, 64.660, -168.030
41.172, 64.492, -169.305
41.771, 64.247, -170.213
42.379, 63.980, -170.405
42.995, 63.769, -170.115
43.620, 63.598, -169.787
44.255, 63.427, -169.361
44.898, 63.275, -168.661
45.552, 63.162, -167.814
46.214, 63.090, -166.821
46.886, 63.105, -165.843
47.568, 63.169, -165.555
48.260, 63.124, -165.705
48.962, 62.988, -164.899
49.674, 63.004, -162.918
50.397, 63.278, -161.246
51.130, 63.676, -160.999
51.874, 64.014, -162.204
52.628, 64.178, -163.960
53.394, 64.240, -165.315
54.170, 64.318, -166.579
54.958, 64.361, -168.278
55.758, 64.313, -170.113
56.569, 64.209, -171.831
57.391, 64.078, -173.680
58.226, 63.846, -175.995
59.073, 63.405, -178.000
59.932, 62.871, -178.730
60.804, 62.322, -178.626
61.688, 61.739, -177.059
62.586, 61.349, -174.286
63.496, 61.012, -171.468
64.420, 60.798, -166.742
65.357, 61.106, -162.410
66.307, 61.473, -161.325
67.272, 61.480, -160.846
68.250, 61.485, -158.181
69.243, 61.848, -156.346
70.250, 61.974, -156.151
71.272, 62.078, -153.687
72.309, 62.546, -152.144
73.360, 62.900, -152.185
74.427, 63.165, -152.231
75.510, 63.418, -152.055
76.608, 63.759, -152.506
77.723, 63.956, -153.738
78.853, 64.085, -154.496
80.000, 64.209, -155.031
81.164, 64.371, -155.570
82.344, 64.500, -156.239
83.542, 64.610, -156.965
84.757, 64.699, -157.306
85.990, 64.844, -158.144
87.241, 64.894, -158.925
88.510, 64.955, -159.364
89.797, 65.122, -159.777
91.103, 65.203, -160.833
92.428, 65.317, -161.673
93.773, 65.307, -162.550
95.137, 65.405, -163.404
96.520, 65.379, -164.483
97.924, 65.396, -165.352
99.349, 65.394, -166.340
100.794, 65.342, -167.253
102.260, 65.259, -167.898
103.747, 65.141, -168.223
105.256, 65.015, -168.039
106.787, 64.958, -167.113
108.340, 65.077, -166.506
109.916, 65.216, -166.261
111.515, 65.323, -166.377
113.137, 65.485, -166.928
114.783, 65.500, -167.611
116.452, 65.530, -168.067
118.146, 65.684, -168.762
119.865, 65.659, -169.694
121.608, 65.715, -170.041
123.377, 65.739, -170.786
125.171, 65.800, -171.034
126.992, 65.745, -171.981
128.839, 65.908, -173.229
130.713, 65.886, -173.655
132.615, 65.779, -173.747
134.543, 65.807, -174.746
136.500, 65.782, -174.927
138.486, 65.785, -175.941
140.500, 65.753, -176.469
142.544, 65.668, -176.757
144.617, 65.630, -177.165
146.721, 65.623, -177.318
148.855, 65.567, -177.738
151.020, 65.603, -177.697
153.217, 65.607, -178.178
155.445, 65.651, -178.523
157.706, 65.684, -179.104
160.000, 65.704, -179.534
162.327, 65.689, 179.651
164.688, 65.703, 179.030
167.084, 65.705, 178.353
169.514, 65.672, 177.917
171.980, 65.649, 177.325
174.481, 65.593, 176.642
177.019, 65.574, 175.876
179.594, 65.543, 175.433
182.206, 65.433, 174.993
184.856, 65.442, 174.041
187.545, 65.417, 173.901
190.273, 65.331, 173.357
193.041, 65.284, 172.729
195.849, 65.273, 172.096
198.697, 65.238, 171.452
201.587, 65.162, 170.545
204.520, 65.133, 169.738
207.494, 64.997, 168.711
210.512, 64.872, 168.008
213.574, 64.680, 167.469
216.681, 64.539, 167.003
219.833, 64.373, 167.127
223.030, 64.222, 166.763
226.274, 64.065, 167.136
229.565, 64.038, 167.341
232.905, 63.980, 167.978
236.292, 63.938, 167.728
239.729, 63.959, 166.591
243.216, 63.743, 166.040
246.754, 63.681, 166.364
250.343, 63.685, 166.006
253.984, 63.427, 165.378
257.678, 63.374, 163.933
261.426, 63.008, 163.443
265.229, 63.011, 163.627
269.087, 62.894, 163.688
273.001, 62.575, 163.564
276.972, 62.430, 163.144
281.000, 62.123, 163.065
285.088, 61.960, 162.921
289.234, 61.614, 163.797
293.441, 61.478, 164.006
297.710, 60.968, 164.386
302.040, 60.778, 165.940
306.433, 60.472, 167.256
310.890, 60.389, 169.460
315.412, 60.283, 170.309
320.000, 60.121, 171.614
324.655, 59.887, 173.166
329.377, 59.636, 175.021
334.168, 59.416, 176.923
339.028, 59.270, 179.307
343.959, 59.165, -177.795
348.962, 59.173, -175.451
354.038, 59.195, -172.352
359.188, 59.293, -169.816
364.412, 59.383, -167.703
369.713, 59.582, -165.014
375.090, 59.847, -162.887
380.546, 60.089, -160.546
386.081, 60.327, -158.605
391.697, 60.701, -157.734
397.395, 60.961, -156.978
403.175, 61.340, -156.391
409.039, 61.696, -156.129
414.989, 61.864, -155.798
421.025, 62.165, -155.845
427.149, 62.339, -156.193
433.362, 62.620, -156.522
439.665, 62.792, -156.845
446.060, 62.982, -157.255
452.548, 63.103, -157.792
459.131, 63.246, -158.717
465.809, 63.421, -159.200
472.584, 63.484, -159.542
479.458, 63.604, -160.268
486.432, 63.640, -160.967
493.507, 63.741, -161.404
500.686, 63.759, -162.017
507.968, 63.827, -162.560
515.357, 63.873, -163.279
522.853, 63.877, -163.838
530.458, 63.894, -164.380
538.174, 63.878, -164.906
546.002, 63.899, -165.463
553.943, 63.856, -165.894
562.001, 63.821, -166.252
570.175, 63.791, -166.564
578.469, 63.719, -166.866
586.883, 63.669, -167.432
595.419, 63.687, -166.819
604.080, 63.541, -167.757
612.866, 63.712, -167.140
621.780, 63.481, -167.477
630.824, 63.465, -167.120
640.000, 63.421, -167.208
649.309, 63.349, -167.254
658.753, 63.307, -167.157
668.335, 63.223, -166.874
678.056, 63.161, -166.671
687.919, 63.091, -166.400
697.925, 63.005, -165.961
708.076, 62.922, -165.173
718.376, 62.903, -164.473
728.825, 62.854, -163.768
739.426, 62.829, -163.193
750.181, 62.827, -162.355
761.093, 62.831, -161.393
772.163, 62.885, -160.706
783.394, 62.921, -159.775
794.789, 63.015, -159.331
806.349, 63.056, -158.918
818.078, 63.182, -158.338
829.977, 63.200, -158.281
842.050, 63.216, -158.474
854.297, 63.220, -158.348
866.724, 63.156, -158.060
879.330, 63.107, -157.077
892.120, 63.075, -155.792
905.097, 63.232, -154.231
918.262, 63.450, -153.744
931.618, 63.601, -154.287
945.169, 63.646, -154.701
958.917, 63.658, -154.847
972.864, 63.656, -154.799
987.015, 63.605, -154.212
1001.371, 63.620, -154.180
1015.937, 63.554, -153.396
1030.714, 63.502, -152.614
1045.706, 63.573, -151.736
1060.916, 63.603, -151.233
1076.347, 63.724, -149.951
1092.003, 63.826, -149.560
1107.887, 63.948, -149.376
1124.001, 64.007, -149.288
1140.350, 64.038, -148.939
1156.937, 64.068, -148.563
1173.765, 64.097, -148.029
1190.838, 64.112, -147.419
1208.159, 64.157, -146.767
1225.732, 64.251, -146.581
1243.561, 64.261, -145.753
1261.649, 64.301, -144.473
1280.000, 64.531, -143.884
1298.618, 64.610, -143.757
1317.507, 64.671, -143.249
1336.670, 64.731, -142.207
1356.113, 64.826, -141.716
1375.838, 64.921, -140.807
1395.850, 65.075, -140.222
1416.153, 65.232, -139.459
1436.751, 65.376, -138.930
1457.649, 65.523, -138.586
1478.851, 65.665, -138.525
1500.362, 65.795, -138.220
1522.185, 65.898, -137.836
1544.326, 66.007, -137.547
1566.789, 66.106, -137.004
1589.578, 66.218, -136.490
1612.699, 66.346, -135.743
1636.156, 66.511, -135.204
1659.955, 66.706, -134.590
1684.099, 66.889, -134.019
1708.595, 67.080, -133.645
1733.447, 67.303, -133.193
1758.661, 67.520, -133.004
1784.241, 67.743, -132.860
1810.193, 67.960, -132.829
1836.523, 68.181, -132.786
1863.236, 68.411, -132.842
1890.338, 68.627, -133.016
1917.833, 68.845, -133.216
1945.729, 69.062, -133.458
1974.030, 69.282, -133.759
2002.743, 69.503, -134.111
2031.873, 69.739, -134.561
2061.428, 69.981, -135.244
2091.412, 70.241, -136.526
2121.832, 70.187, -140.208
2152.695, 69.945, -135.429
2184.007, 70.454, -135.345
2215.774, 70.791, -135.805
2248.003, 71.068, -136.719
2280.701, 71.306, -137.431
2313.874, 71.552, -138.101
2347.530, 71.806, -138.891
2381.676, 72.063, -139.763
2416.318, 72.311, -140.769
2451.464, 72.572, -141.766
2487.122, 72.833, -142.939
2523.298, 73.105, -144.281
2560.000, 73.371, -145.784
2597.236, 73.634, -147.467
2635.014, 73.889, -149.372
2673.341, 74.128, -151.516
2712.226, 74.338, -153.865
2751.676, 74.523, -156.432
2791.700, 74.655, -159.141
2832.306, 74.750, -161.793
2873.503, 74.819, -164.607
2915.299, 74.837, -167.446
2957.703, 74.801, -170.254
3000.724, 74.710, -172.898
3044.370, 74.576, -175.226
3088.652, 74.403, -177.032
3133.577, 74.259, -178.198
3179.156, 74.217, -178.763
3225.398, 74.354, -179.214
3272.312, 74.719, 178.809
3319.909, 74.927, 174.411
3368.198, 74.859, 170.176
3417.190, 74.716, 166.203
3466.894, 74.474, 162.239
3517.321, 74.129, 158.574
3568.482, 73.753, 155.556
3620.387, 73.381, 152.448
3673.046, 72.923, 149.242
3726.472, 72.340, 146.610
3780.675, 71.781, 144.302
3835.666, 71.131, 142.167
3891.457, 70.412, 140.566
3948.060, 69.645, 139.515
4005.486, 68.827, 139.186
4063.747, 68.004, 139.680
4122.855, 67.199, 140.814
4182.824, 66.403, 142.377
4243.664, 65.544, 144.330
4305.390, 64.553, 147.803
4368.013, 63.590, 153.523
4431.547, 62.970, 163.063
4496.005, 63.253, 170.617
4561.401, 63.289, 174.276
4627.749, 63.027, 179.377
4695.061, 62.889, -173.507
4763.352, 63.027, -165.129
4832.637, 63.545, -156.264
4902.929, 64.477, -147.924
4974.244, 65.841, -140.824
5046.596, 67.683, -136.436
5120.000, 69.818, -137.474
5194.472, 71.599, -144.914
5270.027, 72.380, -156.002
5346.682, 71.766, -162.018
5424.451, 73.043, -155.827
5503.352, 74.654, -170.947
5583.399, 74.411, 175.100
5664.612, 73.420, 164.403
5747.006, 71.631, 158.443
5830.598, 70.322, 163.892
5915.406, 70.267, 165.689
6001.447, 70.020, 166.171
6088.740, 69.844, 166.260
6177.303, 69.450, 166.643
6267.154, 69.286, 169.874
6358.312, 69.586, 171.747
6450.796, 69.946, 172.014
6544.625, 70.237, 171.023
6639.818, 70.557, 169.569
6736.397, 70.859, 167.353
6834.380, 71.129, 163.465
6933.789, 71.145, 158.838
7034.643, 71.001, 153.895
7136.964, 70.392, 149.456
7240.773, 69.772, 148.649
7346.093, 69.640, 148.791
7452.944, 69.805, 145.716
7561.350, 69.353, 139.936
7671.332, 68.470, 137.335
7782.915, 67.813, 137.220
7896.120, 67.398, 135.971
8010.971, 66.912, 135.730
8127.493, 66.543, 133.340
8245.711, 65.699, 132.699
8365.647, 65.724, 132.390
8487.328, 63.997, 120.631
8610.779, 61.721, 126.174
8736.026, 59.870, 144.164
8863.095, 61.320, 158.694
8992.011, 62.558, 155.675
9122.803, 62.534, 162.585
9255.497, 63.780, 157.435
9390.121, 64.936, 148.601
9526.704, 63.813, 131.877
9665.273, 61.062, 125.825
9805.857, 59.106, 126.120
9948.487, 53.684, 138.044
10093.191, 55.190, -170.609
10240.000, 59.196, -173.172
10388.944, 59.924, 168.507
10540.055, 56.912, 174.095
10693.363, 58.481, -162.305
10848.902, 60.187, -160.657
11006.703, 62.240, -156.447
11166.799, 65.024, -164.243
11329.224, 66.043, 175.607
11494.012, 65.279, 157.546
11661.195, 63.383, 145.331
11830.812, 60.872, 143.485
12002.895, 59.952, 143.982
12177.480, 58.026, 138.932
12354.606, 55.451, 139.477
12534.309, 52.433, 153.778
12716.624, 50.505, 165.257
12901.592, 49.124, -145.434
13089.250, 53.313, -129.928
13279.637, 57.307, -131.152
13472.794, 58.175, -132.964
13668.760, 59.904, -133.753
13867.577, 62.289, -132.953
14069.285, 64.820, -153.141
14273.928, 63.703, 177.815
14481.547, 60.737, 179.681
14692.186, 60.724, -178.117
14905.889, 60.629, 174.364
15122.700, 59.325, 169.236
15342.664, 58.773, 168.004
15565.829, 58.319, 154.200
15792.239, 54.697, 133.351
16021.942, 42.054, 99.619
16254.986, 50.772, -85.216
16491.422, 58.365, -101.601
16731.295, 62.609, -138.555
16974.656, 61.096, 179.112
17221.559, 56.052, 165.921
17472.053, 51.545, 173.607
17726.189, 48.985, -157.170
17984.021, 51.218, -125.333
18245.605, 55.295, -127.750
18510.994, 56.119, -137.945
18780.242, 56.500, -150.033
19053.408, 53.728, -147.381
19330.547, 55.630, -135.951
19611.715, 57.490, -148.035
19896.975, 56.962, -164.869
