* Measurement data measured by REW V5.19
* Source: ASIO MOTU M Series, In 1
* Format: 1M Log Swept Sine, 1 sweep at -3.0 dBFS  With no timing reference
* Dated: 28 Oct, 2020 5:25:03 PM
* REW Settings:
*  C-weighting compensation: Off
*  Target level: 75.0 dB
* Note: ; 
* Measurement: Oct 28 17:25:03
* Smoothing: None
* Frequency Step: 1/48 octave
* Start Frequency: 10.1 Hz
*
* Freq(Hz), SPL(dB), Phase(degrees)
10.145, 54.418, -64.184
10.293, 54.458, -65.439
10.443, 54.498, -66.631
10.595, 54.513, -67.380
10.749, 54.530, -67.881
10.905, 54.570, -68.101
11.064, 54.636, -68.106
11.225, 54.751, -68.024
11.388, 54.911, -67.882
11.554, 55.117, -67.930
11.722, 55.365, -68.163
11.892, 55.625, -68.754
12.065, 55.895, -69.684
12.241, 56.138, -70.947
12.419, 56.351, -72.502
12.599, 56.510, -74.217
12.782, 56.616, -76.006
12.968, 56.661, -77.709
13.157, 56.658, -79.196
13.348, 56.611, -80.348
13.543, 56.557, -81.074
13.740, 56.506, -81.341
13.939, 56.506, -81.250
14.142, 56.561, -80.931
14.348, 56.693, -80.600
14.557, 56.878, -80.498
14.768, 57.106, -80.727
14.983, 57.331, -81.368
15.201, 57.535, -82.310
15.422, 57.697, -83.476
15.646, 57.808, -84.615
15.874, 57.883, -85.608
16.105, 57.933, -86.325
16.339, 57.998, -86.732
16.577, 58.094, -86.952
16.818, 58.237, -87.110
17.063, 58.424, -87.450
17.311, 58.626, -88.092
17.563, 58.816, -89.036
17.818, 58.969, -90.212
18.077, 59.066, -91.406
18.340, 59.121, -92.405
18.607, 59.156, -93.090
18.877, 59.202, -93.431
19.152, 59.294, -93.547
19.431, 59.442, -93.716
19.713, 59.624, -94.159
20.000, 59.807, -94.953
20.291, 59.955, -96.022
20.586, 60.049, -97.158
20.885, 60.096, -98.111
21.189, 60.128, -98.712
21.497, 60.187, -98.994
21.810, 60.303, -99.195
22.127, 60.467, -99.615
22.449, 60.643, -100.426
22.776, 60.788, -101.582
23.107, 60.874, -102.851
23.443, 60.908, -103.949
23.784, 60.925, -104.698
24.130, 60.965, -105.141
24.481, 61.054, -105.509
24.837, 61.178, -106.054
25.198, 61.305, -106.860
25.565, 61.405, -107.818
25.937, 61.475, -108.742
26.314, 61.534, -109.522
26.697, 61.599, -110.186
27.085, 61.674, -110.834
27.479, 61.748, -111.504
27.879, 61.817, -112.141
28.284, 61.887, -112.696
28.696, 61.971, -113.225
29.113, 62.062, -113.840
29.537, 62.138, -114.542
29.966, 62.191, -115.160
30.402, 62.245, -115.542
30.844, 62.343, -115.800
31.293, 62.488, -116.296
31.748, 62.627, -117.238
32.210, 62.705, -118.399
32.678, 62.728, -119.308
33.154, 62.763, -119.790
33.636, 62.864, -120.205
34.125, 63.000, -121.011
34.621, 63.097, -122.176
35.125, 63.131, -123.241
35.636, 63.153, -123.930
36.154, 63.217, -124.457
36.680, 63.302, -125.160
37.214, 63.361, -126.018
37.755, 63.387, -126.738
38.304, 63.417, -127.239
38.861, 63.469, -127.743
39.427, 63.517, -128.383
40.000, 63.543, -129.031
40.582, 63.569, -129.562
41.172, 63.623, -130.146
41.771, 63.684, -131.051
42.379, 63.698, -132.243
42.995, 63.641, -133.303
43.620, 63.558, -133.834
44.255, 63.522, -133.828
44.898, 63.577, -133.582
45.552, 63.729, -133.506
46.214, 63.933, -133.991
46.886, 64.103, -135.066
47.568, 64.188, -136.308
48.260, 64.208, -137.391
48.962, 64.181, -138.268
49.674, 64.125, -138.818
50.397, 64.089, -139.226
51.130, 64.029, -139.908
51.874, 63.876, -140.303
52.628, 63.769, -139.833
53.394, 63.799, -139.608
54.170, 63.785, -139.894
54.958, 63.767, -139.391
55.758, 63.953, -138.903
56.569, 64.160, -139.750
57.391, 64.231, -140.779
58.226, 64.294, -141.582
59.073, 64.294, -142.782
59.932, 64.172, -143.499
60.804, 64.085, -143.788
61.688, 63.925, -144.404
62.586, 63.658, -143.850
63.496, 63.581, -142.336
64.420, 63.599, -141.284
65.357, 63.689, -139.807
66.307, 63.964, -138.949
67.272, 64.204, -138.979
68.250, 64.439, -139.111
69.243, 64.633, -139.764
70.250, 64.765, -140.205
71.272, 64.924, -140.780
72.309, 65.034, -141.554
73.360, 65.153, -142.320
74.427, 65.225, -143.383
75.510, 65.281, -144.018
76.608, 65.371, -144.994
77.723, 65.379, -145.773
78.853, 65.441, -146.494
80.000, 65.410, -147.395
81.164, 65.403, -147.728
82.344, 65.409, -148.348
83.542, 65.389, -148.719
84.757, 65.411, -148.858
85.990, 65.474, -149.056
87.241, 65.543, -149.398
88.510, 65.605, -149.754
89.797, 65.655, -150.206
91.103, 65.734, -150.630
92.428, 65.773, -151.781
93.773, 65.730, -152.172
95.137, 65.821, -152.599
96.520, 65.837, -153.239
97.924, 65.912, -153.700
99.349, 65.875, -154.257
100.794, 65.946, -154.467
102.260, 65.915, -155.374
103.747, 65.897, -155.591
105.256, 65.933, -156.041
106.787, 65.964, -156.427
108.340, 66.017, -157.263
109.916, 65.969, -157.687
111.515, 65.934, -157.924
113.137, 66.001, -158.330
114.783, 65.922, -158.663
116.452, 65.984, -158.954
118.146, 65.960, -159.341
119.865, 65.968, -159.610
121.608, 65.988, -159.943
123.377, 66.005, -160.538
125.171, 66.012, -161.027
126.992, 66.014, -161.510
128.839, 66.040, -161.851
130.713, 66.022, -162.301
132.615, 66.027, -162.600
134.543, 65.969, -162.895
136.500, 65.961, -163.188
138.486, 65.938, -163.546
140.500, 65.958, -163.467
142.544, 65.944, -164.211
144.617, 65.963, -164.463
146.721, 65.962, -164.843
148.855, 65.955, -165.033
151.020, 65.955, -165.548
153.217, 65.935, -165.899
155.445, 65.896, -166.257
157.706, 65.883, -166.746
160.000, 65.824, -167.131
162.327, 65.756, -167.203
164.688, 65.748, -167.473
167.084, 65.699, -167.880
169.514, 65.752, -167.736
171.980, 65.720, -167.963
174.481, 65.725, -168.415
177.019, 65.726, -168.387
179.594, 65.680, -168.883
182.206, 65.663, -169.364
184.856, 65.592, -169.518
187.545, 65.478, -169.626
190.273, 65.401, -169.603
193.041, 65.360, -169.490
195.849, 65.300, -169.252
198.697, 65.281, -169.078
201.587, 65.272, -168.796
204.520, 65.295, -168.431
207.494, 65.306, -167.941
210.512, 65.350, -168.427
213.574, 65.373, -168.410
216.681, 65.395, -168.562
219.833, 65.360, -168.513
223.030, 65.373, -168.533
226.274, 65.379, -168.642
229.565, 65.379, -168.806
232.905, 65.395, -168.817
236.292, 65.368, -168.866
239.729, 65.363, -168.948
243.216, 65.357, -169.062
246.754, 65.380, -169.058
250.343, 65.344, -169.198
253.984, 65.352, -169.335
257.678, 65.331, -169.245
261.426, 65.325, -169.429
265.229, 65.322, -169.388
269.087, 65.245, -169.442
273.001, 65.299, -169.692
276.972, 65.237, -169.391
281.000, 65.242, -169.305
285.088, 65.243, -169.086
289.234, 65.256, -169.192
293.441, 65.218, -169.188
297.710, 65.237, -169.013
302.040, 65.256, -168.869
306.433, 65.246, -168.999
310.890, 65.253, -168.914
315.412, 65.217, -169.022
320.000, 65.252, -169.046
324.655, 65.247, -169.005
329.377, 65.211, -168.932
334.168, 65.226, -169.006
339.028, 65.197, -169.176
343.959, 65.196, -169.029
348.962, 65.185, -169.145
354.038, 65.142, -169.267
359.188, 65.086, -169.143
364.412, 65.048, -168.734
369.713, 65.030, -168.354
375.090, 65.030, -168.122
380.546, 65.028, -167.777
386.081, 65.064, -167.421
391.697, 65.050, -167.491
397.395, 65.081, -167.221
403.175, 65.064, -167.069
409.039, 65.053, -167.037
414.989, 65.102, -166.396
421.025, 65.120, -166.750
427.149, 65.121, -166.286
433.362, 65.045, -166.190
439.665, 65.145, -165.823
446.060, 65.129, -165.818
452.548, 65.185, -165.258
459.131, 65.221, -165.251
465.809, 65.187, -164.958
472.584, 65.237, -165.116
479.458, 65.179, -164.660
486.432, 65.319, -164.962
493.507, 65.250, -164.736
500.686, 65.138, -163.991
507.968, 65.409, -163.516
515.357, 65.408, -163.698
522.853, 65.366, -163.963
530.458, 65.316, -163.391
538.174, 65.447, -164.207
546.002, 65.413, -163.396
553.943, 65.259, -163.018
562.001, 65.428, -163.138
570.175, 65.517, -163.074
578.469, 65.542, -162.749
586.883, 65.578, -162.684
595.419, 65.567, -162.492
604.080, 65.565, -162.154
612.866, 65.627, -162.023
621.780, 65.659, -161.894
630.824, 65.677, -161.682
640.000, 65.683, -161.820
649.309, 65.729, -161.492
658.753, 65.793, -161.471
668.335, 65.804, -161.424
678.056, 65.817, -161.355
687.919, 65.829, -161.229
697.925, 65.890, -161.163
708.076, 65.890, -160.854
718.376, 65.892, -160.832
728.825, 65.938, -161.108
739.426, 65.927, -160.958
750.181, 65.917, -161.038
761.093, 65.918, -160.694
772.163, 65.888, -160.368
783.394, 65.913, -160.109
794.789, 65.892, -159.500
806.349, 65.922, -159.020
818.078, 65.960, -158.311
829.977, 66.001, -158.128
842.050, 66.073, -157.833
854.297, 66.159, -157.323
866.724, 66.206, -157.279
879.330, 66.240, -156.448
892.120, 66.288, -156.018
905.097, 66.441, -156.266
918.262, 66.538, -156.387
931.618, 66.573, -156.222
945.169, 66.558, -155.666
958.917, 66.680, -155.804
972.864, 66.828, -155.756
987.015, 66.798, -155.410
1001.371, 66.866, -155.153
1015.937, 66.974, -155.166
1030.714, 67.038, -155.346
1045.706, 67.118, -155.426
1060.916, 67.151, -155.317
1076.347, 67.257, -155.263
1092.003, 67.266, -155.194
1107.887, 67.348, -155.498
1124.001, 67.411, -155.029
1140.350, 67.446, -154.996
1156.937, 67.541, -155.012
1173.765, 67.594, -155.119
1190.838, 67.665, -155.118
1208.159, 67.733, -155.044
1225.732, 67.782, -155.484
1243.561, 67.877, -155.546
1261.649, 67.918, -155.649
1280.000, 67.960, -155.618
1298.618, 68.027, -155.855
1317.507, 68.114, -156.020
1336.670, 68.098, -156.041
1356.113, 68.079, -156.323
1375.838, 68.202, -156.041
1395.850, 68.234, -156.211
1416.153, 68.248, -156.125
1436.751, 68.233, -155.494
1457.649, 68.301, -155.772
1478.851, 68.386, -155.777
1500.362, 68.472, -155.665
1522.185, 68.434, -155.396
1544.326, 68.486, -155.815
1566.789, 68.439, -155.140
1589.578, 68.558, -155.484
1612.699, 68.552, -154.873
1636.156, 68.566, -154.704
1659.955, 68.648, -153.800
1684.099, 68.773, -153.610
1708.595, 68.892, -152.925
1733.447, 68.963, -153.590
1758.661, 69.063, -153.256
1784.241, 69.173, -152.752
1810.193, 69.327, -152.133
1836.523, 69.466, -151.553
1863.236, 69.587, -152.007
1890.338, 69.742, -152.119
1917.833, 69.910, -151.910
1945.729, 70.164, -152.472
1974.030, 70.293, -152.841
2002.743, 70.298, -153.255
2031.873, 70.418, -152.730
2061.428, 70.666, -152.834
2091.412, 70.864, -153.100
2121.832, 70.892, -153.367
2152.695, 71.110, -154.247
2184.007, 71.276, -153.943
2215.774, 71.457, -154.616
2248.003, 71.591, -154.671
2280.701, 71.777, -155.206
2313.874, 71.967, -156.154
2347.530, 72.163, -157.124
2381.676, 72.328, -157.182
2416.318, 72.651, -158.374
2451.464, 72.708, -159.474
2487.122, 72.879, -160.633
2523.298, 73.094, -162.315
2560.000, 73.290, -163.549
2597.236, 73.358, -164.714
2635.014, 73.482, -166.595
2673.341, 73.523, -167.822
2712.226, 73.720, -169.059
2751.676, 73.823, -170.657
2791.700, 73.895, -172.328
2832.306, 73.993, -174.499
2873.503, 74.113, -175.971
2915.299, 74.169, -178.602
2957.703, 74.148, 179.856
3000.724, 74.209, 177.398
3044.370, 74.171, 175.290
3088.652, 74.093, 173.226
3133.577, 74.139, 171.104
3179.156, 74.004, 168.584
3225.398, 73.909, 166.694
3272.312, 73.771, 164.305
3319.909, 73.543, 162.105
3368.198, 73.404, 160.313
3417.190, 73.167, 157.752
3466.894, 72.907, 155.971
3517.321, 72.581, 154.157
3568.482, 72.219, 152.345
3620.387, 71.869, 151.278
3673.046, 71.493, 150.256
3726.472, 71.042, 150.038
3780.675, 70.670, 150.026
3835.666, 70.283, 151.115
3891.457, 70.027, 152.194
3948.060, 69.864, 153.907
4005.486, 69.917, 155.039
4063.747, 70.103, 155.786
4122.855, 70.220, 154.584
4182.824, 70.340, 153.186
4243.664, 70.324, 150.839
4305.390, 70.171, 148.507
4368.013, 69.937, 146.096
4431.547, 69.656, 144.231
4496.005, 69.279, 142.092
4561.401, 68.846, 140.633
4627.749, 68.385, 139.205
4695.061, 67.861, 138.350
4763.352, 67.238, 137.711
4832.637, 66.601, 138.038
4902.929, 65.901, 139.322
4974.244, 65.256, 142.177
5046.596, 64.819, 146.176
5120.000, 64.658, 150.329
5194.472, 64.694, 153.692
5270.027, 64.819, 155.841
5346.682, 64.917, 157.207
5424.451, 64.986, 157.752
5503.352, 65.011, 158.133
5583.399, 64.960, 158.562
5664.612, 64.873, 159.058
5747.006, 64.760, 159.696
5830.598, 64.624, 160.746
5915.406, 64.539, 162.097
6001.447, 64.495, 163.570
6088.740, 64.569, 165.090
6177.303, 64.701, 166.436
6267.154, 64.916, 167.299
6358.312, 65.168, 167.356
6450.796, 65.427, 166.569
6544.625, 65.628, 164.816
6639.818, 65.739, 162.573
6736.397, 65.707, 159.846
6834.380, 65.589, 157.129
6933.789, 65.316, 154.352
7034.643, 64.935, 151.791
7136.964, 64.413, 149.882
7240.773, 63.796, 148.987
7346.093, 63.185, 149.410
7452.944, 62.699, 150.846
7561.350, 62.360, 152.764
7671.332, 62.207, 154.438
7782.915, 62.172, 155.407
7896.120, 62.193, 155.709
8010.971, 62.466, 153.399
8127.493, 62.163, 149.958
8245.711, 61.745, 146.399
8365.647, 61.059, 142.416
8487.328, 60.021, 138.887
8610.779, 58.575, 136.755
8736.026, 56.792, 137.693
8863.095, 54.790, 143.192
8992.011, 52.973, 155.332
9122.803, 52.103, 173.669
9255.497, 52.827, -167.356
9390.121, 54.915, -155.645
9526.704, 57.093, -154.324
9665.273, 58.481, -159.554
9805.857, 58.964, -166.359
9948.487, 58.878, -171.467
10093.191, 58.562, -174.683
10240.000, 58.257, -176.424
10388.944, 57.970, -178.044
10540.055, 57.705, 179.727
10693.363, 57.280, 176.426
10848.902, 56.492, 172.447
11006.703, 55.191, 169.372
11166.799, 53.324, 169.525
11329.224, 51.384, 176.786
11494.012, 50.221, -170.791
11661.195, 49.913, -158.240
11830.812, 50.191, -147.758
12002.895, 50.785, -140.402
12177.480, 51.374, -136.306
12354.606, 51.613, -134.157
12534.309, 51.631, -131.390
12716.624, 51.516, -128.221
12901.592, 51.287, -124.043
13089.250, 51.115, -116.678
13279.637, 51.879, -107.642
13472.794, 53.455, -106.765
13668.760, 53.859, -116.483
13867.577, 51.373, -124.780
14069.285, 47.483, -94.771
14273.928, 51.663, -65.113
14481.547, 54.954, -65.444
14692.186, 56.872, -69.126
14905.889, 58.344, -73.115
15122.700, 59.582, -77.907
15342.664, 60.754, -83.226
15565.829, 62.049, -91.618
15792.239, 62.865, -106.366
16021.942, 62.110, -123.994
16254.986, 60.065, -132.167
16491.422, 58.422, -131.931
16731.295, 57.516, -128.548
16974.656, 57.267, -125.652
17221.559, 57.356, -125.025
17472.053, 57.562, -127.169
17726.189, 57.607, -132.391
17984.021, 57.233, -139.966
18245.605, 56.173, -148.251
18510.994, 54.486, -153.517
18780.242, 52.753, -154.430
19053.408, 51.405, -153.103
19330.547, 50.410, -154.564
19611.715, 48.880, -158.996
19896.975, 46.610, -164.840
