* Measurement data measured by REW V5.19
* Source: ASIO MOTU M Series, In 1
* Format: 1M Log Swept Sine, 1 sweep at -10.0 dBFS  With no timing reference
* Dated: 14 Jan, 2021 10:00:38 PM
* REW Settings:
*  C-weighting compensation: Off
*  Target level: 75.0 dB
* Note: ; 
* Measurement: Jan 14 22:00:38
* Smoothing: 1/48 octave
* Frequency Step: 1/48 octave
* Start Frequency: 10.1 Hz
*
* Freq(Hz), SPL(dB), Phase(degrees)
10.145, 61.684, -94.480
10.293, 61.725, -95.174
10.443, 61.767, -96.098
10.595, 61.835, -97.292
10.749, 61.906, -98.527
10.905, 61.965, -99.444
11.064, 62.021, -100.249
11.225, 62.084, -101.189
11.388, 62.152, -102.191
11.554, 62.217, -103.173
11.722, 62.281, -104.148
11.892, 62.342, -105.126
12.065, 62.400, -106.108
12.241, 62.455, -107.109
12.419, 62.507, -108.116
12.599, 62.554, -109.086
12.782, 62.597, -110.034
12.968, 62.639, -110.976
13.157, 62.679, -111.897
13.348, 62.718, -112.784
13.543, 62.758, -113.657
13.740, 62.797, -114.517
13.939, 62.838, -115.370
14.142, 62.878, -116.217
14.348, 62.917, -117.061
14.557, 62.956, -117.904
14.768, 62.993, -118.744
14.983, 63.028, -119.576
15.201, 63.060, -120.396
15.422, 63.092, -121.203
15.646, 63.122, -121.992
15.874, 63.152, -122.766
16.105, 63.182, -123.528
16.339, 63.212, -124.281
16.577, 63.242, -125.029
16.818, 63.272, -125.776
17.063, 63.301, -126.524
17.311, 63.328, -127.268
17.563, 63.353, -128.005
17.818, 63.375, -128.730
18.077, 63.396, -129.437
18.340, 63.416, -130.124
18.607, 63.436, -130.794
18.877, 63.457, -131.450
19.152, 63.479, -132.100
19.431, 63.501, -132.749
19.713, 63.521, -133.396
20.000, 63.540, -134.036
20.291, 63.557, -134.662
20.586, 63.573, -135.268
20.885, 63.588, -135.852
21.189, 63.605, -136.418
21.497, 63.624, -136.979
21.810, 63.642, -137.541
22.127, 63.660, -138.106
22.449, 63.674, -138.662
22.776, 63.686, -139.198
23.107, 63.697, -139.707
23.443, 63.710, -140.198
23.784, 63.724, -140.687
24.130, 63.736, -141.183
24.481, 63.743, -141.671
24.837, 63.744, -142.113
25.198, 63.745, -142.471
25.565, 63.758, -142.752
25.937, 63.790, -143.023
26.314, 63.840, -143.390
26.697, 63.894, -143.932
27.085, 63.932, -144.632
27.479, 63.939, -145.372
27.879, 63.922, -145.997
28.284, 63.900, -146.432
28.696, 63.896, -146.730
29.113, 63.917, -147.039
29.537, 63.948, -147.477
29.966, 63.968, -148.022
30.402, 63.969, -148.552
30.844, 63.962, -148.962
31.293, 63.968, -149.273
31.748, 63.992, -149.608
32.210, 64.020, -150.062
32.678, 64.033, -150.606
33.154, 64.026, -151.129
33.636, 64.009, -151.545
34.125, 63.996, -151.875
34.621, 63.990, -152.186
35.125, 63.986, -152.515
35.636, 63.980, -152.848
36.154, 63.973, -153.166
36.680, 63.967, -153.475
37.214, 63.959, -153.775
37.755, 63.950, -154.036
38.304, 63.945, -154.239
38.861, 63.950, -154.405
39.427, 63.962, -154.581
40.000, 63.974, -154.775
40.582, 63.982, -154.928
41.172, 63.995, -155.026
41.771, 64.016, -155.156
42.379, 64.026, -155.363
42.995, 64.013, -155.487
43.620, 64.010, -155.411
44.255, 64.044, -155.376
44.898, 64.082, -155.604
45.552, 64.099, -155.858
46.214, 64.148, -156.029
46.886, 64.243, -156.689
47.568, 64.255, -157.987
48.260, 64.128, -158.810
48.962, 64.043, -158.457
49.674, 64.140, -158.066
50.397, 64.264, -158.579
51.130, 64.287, -159.165
51.874, 64.311, -159.171
52.628, 64.402, -159.204
53.394, 64.477, -159.564
54.170, 64.515, -159.831
54.958, 64.569, -160.046
55.758, 64.619, -160.562
56.569, 64.608, -161.236
57.391, 64.548, -161.650
58.226, 64.509, -161.757
59.073, 64.509, -161.935
59.932, 64.505, -162.263
60.804, 64.501, -162.538
61.688, 64.506, -162.872
62.586, 64.500, -163.152
63.496, 64.524, -163.378
64.420, 64.537, -163.910
65.357, 64.497, -164.192
66.307, 64.511, -164.235
67.272, 64.523, -164.662
68.250, 64.492, -164.859
69.243, 64.503, -165.027
70.250, 64.480, -165.394
71.272, 64.449, -165.439
72.309, 64.456, -165.548
73.360, 64.452, -165.744
74.427, 64.453, -165.904
75.510, 64.453, -166.100
76.608, 64.447, -166.257
77.723, 64.442, -166.391
78.853, 64.434, -166.518
80.000, 64.429, -166.650
81.164, 64.422, -166.822
82.344, 64.417, -166.982
83.542, 64.412, -167.149
84.757, 64.411, -167.237
85.990, 64.415, -167.306
87.241, 64.421, -167.402
88.510, 64.407, -167.558
89.797, 64.388, -167.628
91.103, 64.385, -167.762
92.428, 64.384, -167.947
93.773, 64.403, -168.065
95.137, 64.409, -168.128
96.520, 64.487, -167.878
97.924, 64.523, -168.388
99.349, 64.496, -168.472
100.794, 64.435, -168.643
102.260, 64.399, -168.441
103.747, 64.392, -168.403
105.256, 64.402, -168.484
106.787, 64.399, -168.600
108.340, 64.384, -168.647
109.916, 64.384, -168.650
111.515, 64.385, -168.715
113.137, 64.392, -168.825
114.783, 64.398, -168.893
116.452, 64.407, -168.955
118.146, 64.409, -169.041
119.865, 64.405, -169.102
121.608, 64.405, -169.092
123.377, 64.417, -169.117
125.171, 64.416, -169.148
126.992, 64.410, -169.142
128.839, 64.414, -169.143
130.713, 64.426, -169.231
132.615, 64.434, -169.338
134.543, 64.439, -169.380
136.500, 64.439, -169.409
138.486, 64.428, -169.331
140.500, 64.449, -169.258
142.544, 64.464, -169.338
144.617, 64.477, -169.444
146.721, 64.485, -169.419
148.855, 64.499, -169.303
151.020, 64.505, -169.263
153.217, 64.508, -169.315
155.445, 64.536, -169.449
157.706, 64.582, -169.352
160.000, 64.643, -169.271
162.327, 64.617, -169.362
164.688, 64.597, -169.336
167.084, 64.620, -169.660
169.514, 64.641, -169.769
171.980, 64.677, -169.773
174.481, 64.676, -169.850
177.019, 64.686, -169.899
179.594, 64.710, -169.955
182.206, 64.746, -169.995
184.856, 64.756, -170.223
187.545, 64.760, -170.145
190.273, 64.768, -170.116
193.041, 64.783, -170.068
195.849, 64.831, -170.474
198.697, 64.803, -170.913
201.587, 64.835, -171.166
204.520, 64.863, -171.524
207.494, 64.870, -171.918
210.512, 64.842, -172.350
213.574, 64.791, -172.771
216.681, 64.692, -172.925
219.833, 64.607, -172.734
223.030, 64.547, -172.357
226.274, 64.514, -171.844
229.565, 64.526, -171.524
232.905, 64.533, -171.087
236.292, 64.603, -170.755
239.729, 64.681, -170.608
243.216, 64.765, -170.753
246.754, 64.799, -170.890
250.343, 64.816, -170.738
253.984, 64.875, -170.940
257.678, 64.937, -171.418
261.426, 65.005, -171.761
265.229, 65.048, -172.383
269.087, 65.070, -173.284
273.001, 65.057, -174.429
276.972, 64.978, -175.605
281.000, 64.842, -176.732
285.088, 64.596, -177.690
289.234, 64.259, -177.888
293.441, 63.920, -176.935
297.710, 63.676, -175.103
302.040, 63.596, -172.975
306.433, 63.613, -171.081
310.890, 63.714, -169.611
315.412, 63.812, -168.634
320.000, 63.933, -167.719
324.655, 64.057, -167.145
329.377, 64.174, -166.724
334.168, 64.280, -166.536
339.028, 64.395, -166.571
343.959, 64.461, -166.364
348.962, 64.569, -166.124
354.038, 64.677, -166.169
359.188, 64.730, -166.138
364.412, 64.826, -166.201
369.713, 64.898, -166.391
375.090, 64.972, -166.446
380.546, 65.059, -166.674
386.081, 65.126, -166.893
391.697, 65.167, -167.434
397.395, 65.190, -167.640
403.175, 65.276, -168.137
409.039, 65.278, -168.849
414.989, 65.233, -169.432
421.025, 65.152, -169.656
427.149, 65.098, -169.171
433.362, 65.150, -169.215
439.665, 65.095, -169.153
446.060, 65.148, -168.774
452.548, 65.231, -168.632
459.131, 65.348, -168.786
465.809, 65.441, -169.777
472.584, 65.417, -171.019
479.458, 65.270, -171.849
486.432, 65.051, -172.097
493.507, 64.852, -171.195
500.686, 64.807, -169.941
507.968, 64.842, -168.807
515.357, 64.913, -167.878
522.853, 65.086, -167.093
530.458, 65.265, -167.068
538.174, 65.403, -167.548
546.002, 65.480, -167.575
553.943, 65.685, -168.179
562.001, 65.732, -169.400
570.175, 65.800, -169.827
578.469, 65.973, -171.205
586.883, 66.028, -173.529
595.419, 65.951, -177.217
604.080, 65.338, 179.639
612.866, 64.453, 179.882
621.780, 63.827, -175.749
630.824, 63.809, -171.451
640.000, 63.931, -168.379
649.309, 64.215, -166.373
658.753, 64.505, -165.077
668.335, 64.818, -165.046
678.056, 65.061, -165.351
687.919, 65.250, -166.669
697.925, 65.371, -168.120
708.076, 65.218, -170.795
718.376, 64.702, -170.861
728.825, 64.470, -168.175
739.426, 64.616, -166.275
750.181, 64.700, -165.891
761.093, 64.754, -165.199
772.163, 64.836, -164.768
783.394, 64.872, -164.140
794.789, 64.983, -163.560
806.349, 65.147, -162.937
818.078, 65.304, -163.209
829.977, 65.417, -163.654
842.050, 65.432, -164.318
854.297, 65.406, -163.964
866.724, 65.513, -163.588
879.330, 65.611, -163.755
892.120, 65.706, -163.801
905.097, 65.789, -163.632
918.262, 66.121, -164.103
931.618, 66.222, -166.182
945.169, 66.235, -168.019
958.917, 66.215, -169.662
972.864, 66.079, -172.742
987.015, 65.509, -174.815
1001.371, 64.795, -173.678
1015.937, 64.453, -170.265
1030.714, 64.438, -167.051
1045.706, 64.559, -165.365
1060.916, 64.722, -164.974
1076.347, 64.574, -164.570
1092.003, 64.585, -162.757
1107.887, 64.578, -161.865
1124.001, 64.608, -159.211
1140.350, 64.936, -157.754
1156.937, 65.166, -157.138
1173.765, 65.429, -156.956
1190.838, 65.632, -156.661
1208.159, 65.931, -156.794
1225.732, 66.189, -158.220
1243.561, 66.055, -159.625
1261.649, 66.025, -158.206
1280.000, 66.348, -157.343
1298.618, 66.732, -158.072
1317.507, 66.963, -159.980
1336.670, 67.165, -161.217
1356.113, 67.593, -164.321
1375.838, 67.532, -170.438
1395.850, 67.012, -173.403
1416.153, 66.907, -178.261
1436.751, 65.535, 174.620
1457.649, 63.291, -178.083
1478.851, 62.960, -165.406
1500.362, 63.702, -158.568
1522.185, 64.349, -157.526
1544.326, 64.418, -157.436
1566.789, 64.703, -154.962
1589.578, 64.911, -154.864
1612.699, 65.178, -153.964
1636.156, 65.527, -153.688
1659.955, 65.746, -156.897
1684.099, 65.231, -157.819
1708.595, 65.133, -154.962
1733.447, 65.317, -153.689
1758.661, 65.539, -154.208
1784.241, 65.411, -155.244
1810.193, 65.179, -154.431
1836.523, 65.164, -152.748
1863.236, 65.179, -153.200
1890.338, 64.700, -152.079
1917.833, 64.702, -148.239
1945.729, 64.753, -146.465
1974.030, 64.581, -144.506
2002.743, 64.526, -139.124
2031.873, 64.979, -133.298
2061.428, 66.048, -130.862
2091.412, 66.395, -131.863
2121.832, 66.866, -130.022
2152.695, 67.550, -128.496
2184.007, 68.325, -130.771
2215.774, 68.645, -133.260
2248.003, 68.781, -135.646
2280.701, 68.739, -136.018
2313.874, 68.947, -135.593
2347.530, 69.135, -135.055
2381.676, 69.741, -134.674
2416.318, 69.861, -137.879
2451.464, 69.940, -136.324
2487.122, 70.559, -135.572
2523.298, 71.411, -138.607
2560.000, 71.533, -144.166
2597.236, 71.560, -148.392
2635.014, 71.075, -154.990
2673.341, 69.512, -153.467
2712.226, 69.205, -144.031
2751.676, 69.839, -138.025
2791.700, 70.798, -134.065
2832.306, 72.288, -133.113
2873.503, 73.457, -139.570
2915.299, 73.834, -146.826
2957.703, 73.916, -152.849
3000.724, 73.880, -159.171
3044.370, 73.323, -165.935
3088.652, 72.314, -167.995
3133.577, 71.415, -167.148
3179.156, 70.694, -162.225
3225.398, 70.844, -156.329
3272.312, 71.296, -151.052
3319.909, 72.336, -147.894
3368.198, 73.932, -149.798
3417.190, 74.330, -158.978
3466.894, 74.265, -162.054
3517.321, 74.625, -166.775
3568.482, 74.612, -172.779
3620.387, 74.306, -177.603
3673.046, 74.095, 178.446
3726.472, 73.770, 170.570
3780.675, 72.185, 165.114
3835.666, 70.460, 169.924
3891.457, 70.193, 175.250
3948.060, 68.980, 179.122
4005.486, 69.668, -162.429
4063.747, 72.318, -163.844
4122.855, 72.266, -174.724
4182.824, 71.957, 179.780
4243.664, 70.724, 179.298
4305.390, 70.355, -174.609
4368.013, 70.677, -175.815
4431.547, 69.655, -166.525
4496.005, 71.695, -157.968
4561.401, 72.594, -164.843
4627.749, 72.828, -162.624
4695.061, 74.632, -166.844
4763.352, 74.291, -178.123
4832.637, 74.339, -178.988
4902.929, 74.452, 173.898
4974.244, 73.983, 169.986
5046.596, 73.668, 166.431
5120.000, 73.098, 164.725
5194.472, 72.848, 164.068
5270.027, 72.577, 162.750
5346.682, 72.372, 161.985
5424.451, 72.139, 160.497
5503.352, 71.737, 159.803
5583.399, 71.537, 160.377
5664.612, 71.419, 160.796
5747.006, 71.474, 160.311
5830.598, 71.319, 158.793
5915.406, 71.210, 159.382
6001.447, 71.322, 157.881
6088.740, 71.147, 156.145
6177.303, 71.097, 155.410
6267.154, 71.020, 152.976
6358.312, 70.684, 150.991
6450.796, 70.489, 150.717
6544.625, 70.327, 147.874
6639.818, 69.872, 146.834
6736.397, 69.595, 145.554
6834.380, 69.122, 144.343
6933.789, 68.610, 143.945
7034.643, 68.096, 144.789
7136.964, 67.704, 146.699
7240.773, 67.601, 148.579
7346.093, 67.492, 149.635
7452.944, 67.586, 150.317
7561.350, 67.520, 149.859
7671.332, 67.480, 149.617
7782.915, 67.383, 150.050
7896.120, 67.630, 150.035
8010.971, 67.729, 148.168
8127.493, 67.974, 146.300
8245.711, 68.065, 143.117
8365.647, 68.425, 137.977
8487.328, 68.340, 129.914
8610.779, 68.026, 119.418
8736.026, 66.799, 106.973
8863.095, 64.716, 97.324
8992.011, 62.040, 91.387
9122.803, 58.892, 88.144
9255.497, 54.804, 88.664
9390.121, 48.492, 118.852
9526.704, 47.535, -172.732
9665.273, 53.525, -139.960
9805.857, 56.493, -144.160
9948.487, 57.479, -147.005
10093.191, 57.990, -140.402
10240.000, 60.206, -130.108
10388.944, 62.909, -127.501
10540.055, 65.543, -134.221
10693.363, 67.111, -148.105
10848.902, 67.405, -162.001
11006.703, 66.955, -174.327
11166.799, 65.583, -177.998
11329.224, 65.169, -175.619
11494.012, 65.516, -175.288
11661.195, 65.859, -178.076
11830.812, 66.032, 177.887
12002.895, 66.138, 173.846
12177.480, 66.287, 167.379
12354.606, 65.727, 159.788
12534.309, 65.018, 155.571
12716.624, 64.357, 151.295
12901.592, 63.749, 146.265
13089.250, 62.480, 140.415
13279.637, 61.151, 140.791
13472.794, 60.372, 137.923
13668.760, 58.872, 135.734
13867.577, 57.803, 136.858
14069.285, 56.864, 129.317
14273.928, 54.201, 118.079
14481.547, 48.939, 123.737
14692.186, 46.426, -161.524
14905.889, 49.367, -147.236
15122.700, 50.331, -146.719
15342.664, 50.358, -131.905
15565.829, 53.172, -119.437
15792.239, 55.763, -118.964
16021.942, 57.427, -132.737
16254.986, 55.864, -138.287
16491.422, 56.540, -128.156
16731.295, 58.305, -131.755
16974.656, 58.795, -145.674
17221.559, 57.522, -155.524
17472.053, 55.616, -158.756
17726.189, 53.647, -149.089
17984.021, 53.453, -138.836
18245.605, 54.074, -132.635
18510.994, 54.325, -134.311
18780.242, 53.498, -137.030
19053.408, 51.845, -123.382
19330.547, 53.079, -110.459
19611.715, 54.757, -106.496
19896.975, 55.887, -112.584
