* Measurement data measured by REW V5.19
* Source: ASIO MOTU M Series, In 1
* Format: 512k Log Swept Sine, 2 sweeps at -10.0 dBFS  With no timing reference
* Dated: 10 Sep, 2020 4:10:59 PM
* REW Settings:
*  C-weighting compensation: Off
*  Target level: 75.0 dB
* Note: ; 
* Measurement: Sep 10 16:10:59
* Smoothing: None
* Frequency Step: 1/48 octave
* Start Frequency: 10.1 Hz
*
* Freq(Hz), SPL(dB), Phase(degrees)
10.145, 59.345, -88.889
10.293, 59.442, -89.927
10.443, 59.540, -91.166
10.595, 59.622, -92.457
10.749, 59.686, -93.844
10.905, 59.719, -95.301
11.064, 59.725, -96.790
11.225, 59.696, -98.204
11.388, 59.635, -99.532
11.554, 59.550, -100.637
11.722, 59.444, -101.520
11.892, 59.341, -102.097
12.065, 59.243, -102.384
12.241, 59.180, -102.428
12.419, 59.152, -102.273
12.599, 59.177, -102.081
12.782, 59.246, -101.914
12.968, 59.357, -101.922
13.157, 59.494, -102.128
13.348, 59.647, -102.588
13.543, 59.799, -103.252
13.740, 59.946, -104.116
13.939, 60.082, -105.102
14.142, 60.207, -106.197
14.348, 60.321, -107.365
14.557, 60.425, -108.604
14.768, 60.516, -109.908
14.983, 60.590, -111.262
15.201, 60.643, -112.621
15.422, 60.673, -113.944
15.646, 60.682, -115.117
15.874, 60.684, -116.092
16.105, 60.693, -116.817
16.339, 60.736, -117.346
16.577, 60.826, -117.840
16.818, 60.966, -118.455
17.063, 61.139, -119.439
17.311, 61.305, -120.870
17.563, 61.428, -122.697
17.818, 61.473, -124.781
18.077, 61.417, -126.789
18.340, 61.275, -128.363
18.607, 61.084, -129.241
18.877, 60.899, -129.291
19.152, 60.793, -128.619
19.431, 60.810, -127.711
19.713, 60.927, -127.045
20.000, 61.090, -126.836
20.291, 61.244, -127.023
20.586, 61.363, -127.331
20.885, 61.463, -127.472
21.189, 61.593, -127.388
21.497, 61.794, -127.419
21.810, 62.044, -127.929
22.127, 62.270, -129.250
22.449, 62.386, -131.173
22.776, 62.336, -133.136
23.107, 62.134, -134.382
23.443, 61.878, -134.308
23.784, 61.730, -132.964
24.130, 61.799, -131.289
24.481, 62.040, -130.491
24.837, 62.288, -131.062
25.198, 62.394, -132.531
25.565, 62.313, -133.928
25.937, 62.123, -134.424
26.314, 61.973, -133.889
26.697, 61.967, -133.067
27.085, 62.061, -132.894
27.479, 62.124, -133.553
27.879, 62.081, -134.414
28.284, 61.985, -134.799
28.696, 61.950, -134.757
29.113, 62.015, -135.063
29.537, 62.070, -136.251
29.966, 61.985, -137.751
30.402, 61.780, -138.363
30.844, 61.668, -137.522
31.293, 61.850, -136.525
31.748, 62.214, -137.260
32.210, 62.442, -139.900
32.678, 62.342, -142.696
33.154, 62.019, -143.647
33.636, 61.821, -142.270
34.125, 61.965, -140.517
34.621, 62.257, -140.241
35.125, 62.410, -140.957
35.636, 62.410, -141.142
36.154, 62.447, -140.283
36.680, 62.627, -139.315
37.214, 62.875, -139.089
37.755, 63.088, -139.515
38.304, 63.242, -140.298
38.861, 63.330, -141.281
39.427, 63.349, -142.190
40.000, 63.349, -142.816
40.582, 63.369, -143.413
41.172, 63.370, -144.162
41.771, 63.326, -144.675
42.379, 63.306, -144.691
42.995, 63.350, -144.630
43.620, 63.406, -144.604
44.255, 63.496, -144.310
44.898, 63.686, -144.235
45.552, 63.880, -145.131
46.214, 63.928, -146.575
46.886, 63.833, -147.704
47.568, 63.651, -148.177
48.260, 63.458, -147.507
48.962, 63.488, -145.981
49.674, 63.765, -145.983
50.397, 63.873, -148.042
51.130, 63.688, -149.316
51.874, 63.644, -148.884
52.628, 63.833, -149.541
53.394, 63.848, -151.357
54.170, 63.738, -151.906
54.958, 63.800, -151.796
55.758, 63.902, -152.424
56.569, 63.928, -152.876
57.391, 64.008, -152.968
58.226, 64.119, -153.604
59.073, 64.119, -154.566
59.932, 64.064, -154.876
60.804, 64.096, -155.293
61.688, 64.008, -156.207
62.586, 63.921, -155.651
63.496, 64.129, -155.894
64.420, 64.125, -157.695
65.357, 64.011, -157.858
66.307, 64.048, -157.905
67.272, 64.061, -157.668
68.250, 64.229, -157.789
69.243, 64.205, -159.154
70.250, 64.000, -159.216
71.272, 63.945, -158.319
72.309, 64.093, -158.504
73.360, 64.069, -160.185
74.427, 63.972, -160.615
75.510, 63.945, -161.472
76.608, 63.796, -160.491
77.723, 64.095, -159.549
78.853, 64.075, -160.695
80.000, 63.980, -159.338
81.164, 64.130, -159.281
82.344, 64.038, -161.120
83.542, 63.608, -160.801
84.757, 63.908, -159.005
85.990, 64.084, -162.522
87.241, 63.749, -162.774
88.510, 63.852, -162.088
89.797, 63.858, -161.599
91.103, 63.976, -162.809
92.428, 63.653, -161.122
93.773, 64.141, -161.909
95.137, 63.770, -161.911
96.520, 64.034, -161.327
97.924, 64.137, -160.912
99.349, 63.715, -163.238
100.794, 64.019, -158.403
102.260, 63.822, -162.594
103.747, 64.322, -161.680
105.256, 63.800, -164.394
106.787, 64.146, -164.392
108.340, 63.781, -163.003
109.916, 64.086, -162.965
111.515, 63.965, -163.174
113.137, 64.099, -163.174
114.783, 64.051, -164.115
116.452, 64.090, -163.519
118.146, 64.057, -164.017
119.865, 64.069, -162.594
121.608, 63.946, -162.582
123.377, 64.245, -163.140
125.171, 64.092, -163.370
126.992, 64.061, -163.809
128.839, 64.149, -163.526
130.713, 64.106, -163.028
132.615, 64.072, -163.814
134.543, 64.248, -162.894
136.500, 64.147, -164.879
138.486, 64.245, -162.732
140.500, 63.998, -165.229
142.544, 64.119, -162.545
144.617, 64.160, -163.024
146.721, 64.431, -165.000
148.855, 64.249, -164.431
151.020, 64.159, -164.167
153.217, 64.240, -164.424
155.445, 64.294, -164.100
157.706, 64.260, -164.761
160.000, 64.230, -164.540
162.327, 64.219, -164.507
164.688, 64.235, -164.693
167.084, 64.250, -164.525
169.514, 64.306, -164.997
171.980, 64.323, -164.126
174.481, 64.478, -163.492
177.019, 64.484, -164.267
179.594, 64.400, -164.028
182.206, 64.458, -164.347
184.856, 64.492, -164.505
187.545, 64.388, -164.666
190.273, 64.309, -165.175
193.041, 64.311, -166.454
195.849, 64.417, -165.742
198.697, 64.480, -165.114
201.587, 64.471, -163.671
204.520, 64.606, -165.320
207.494, 64.538, -164.273
210.512, 64.751, -164.124
213.574, 64.595, -163.642
216.681, 64.779, -163.768
219.833, 64.711, -164.414
223.030, 64.789, -163.910
226.274, 64.677, -164.362
229.565, 64.833, -164.102
232.905, 64.868, -164.513
236.292, 64.712, -164.214
239.729, 64.845, -163.497
243.216, 64.953, -164.549
246.754, 64.878, -164.951
250.343, 64.850, -164.587
253.984, 64.883, -164.218
257.678, 64.837, -164.605
261.426, 64.942, -164.307
265.229, 65.061, -164.228
269.087, 64.958, -163.508
273.001, 65.085, -164.307
276.972, 65.104, -164.377
281.000, 65.052, -164.644
285.088, 65.228, -165.277
289.234, 65.282, -164.735
293.441, 65.214, -164.653
297.710, 65.261, -165.215
302.040, 65.282, -165.399
306.433, 65.356, -165.153
310.890, 65.401, -165.208
315.412, 65.401, -165.754
320.000, 65.475, -165.411
324.655, 65.660, -165.189
329.377, 65.423, -167.934
334.168, 65.529, -166.828
339.028, 65.345, -164.636
343.959, 65.474, -166.821
348.962, 65.463, -167.526
354.038, 65.740, -167.128
359.188, 65.786, -166.976
364.412, 65.663, -166.965
369.713, 65.623, -168.756
375.090, 65.595, -168.205
380.546, 65.392, -168.131
386.081, 65.732, -169.478
391.697, 65.609, -168.942
397.395, 65.818, -169.711
403.175, 65.456, -168.247
409.039, 65.647, -169.019
414.989, 65.769, -169.281
421.025, 65.658, -168.896
427.149, 65.474, -169.075
433.362, 65.548, -169.555
439.665, 65.488, -169.870
446.060, 65.444, -169.247
452.548, 65.431, -168.988
459.131, 65.503, -168.998
465.809, 65.548, -168.286
472.584, 65.509, -168.217
479.458, 65.466, -167.301
486.432, 65.404, -166.788
493.507, 65.296, -167.709
500.686, 65.317, -169.305
507.968, 65.477, -168.027
515.357, 65.265, -167.262
522.853, 65.440, -166.390
530.458, 65.196, -166.031
538.174, 65.442, -164.113
546.002, 65.439, -163.938
553.943, 65.512, -162.894
562.001, 65.815, -162.905
570.175, 65.813, -160.904
578.469, 66.043, -164.009
586.883, 65.823, -160.478
595.419, 66.332, -160.472
604.080, 66.665, -160.864
612.866, 66.780, -161.121
621.780, 66.802, -161.398
630.824, 66.777, -162.208
640.000, 67.055, -163.491
649.309, 67.529, -163.434
658.753, 67.414, -163.232
668.335, 67.463, -164.367
678.056, 67.413, -165.689
687.919, 67.456, -164.149
697.925, 67.861, -165.403
708.076, 67.978, -166.574
718.376, 68.022, -168.044
728.825, 68.042, -168.433
739.426, 68.149, -169.777
750.181, 68.172, -171.112
761.093, 68.123, -171.533
772.163, 68.270, -173.234
783.394, 68.446, -173.826
794.789, 68.210, -175.336
806.349, 68.468, -177.020
818.078, 68.358, -178.022
829.977, 68.077, -179.641
842.050, 68.352, 179.142
854.297, 67.878, 176.500
866.724, 67.680, 175.634
879.330, 67.362, 176.098
892.120, 67.080, 175.851
905.097, 66.798, 177.011
918.262, 66.647, 178.589
931.618, 66.529, -179.255
945.169, 66.707, -178.392
958.917, 66.957, -177.427
972.864, 67.077, -177.781
987.015, 67.182, -177.348
1001.371, 67.456, -179.435
1015.937, 67.358, -179.868
1030.714, 67.429, 178.701
1045.706, 67.190, 177.185
1060.916, 67.037, 176.766
1076.347, 66.897, 178.819
1092.003, 67.182, 177.950
1107.887, 67.136, 178.600
1124.001, 67.246, 176.595
1140.350, 67.073, 175.995
1156.937, 66.891, 176.589
1173.765, 67.021, 176.020
1190.838, 67.054, 174.583
1208.159, 66.824, 174.375
1225.732, 66.805, 174.234
1243.561, 66.868, 173.730
1261.649, 66.782, 173.515
1280.000, 66.814, 172.945
1298.618, 66.730, 172.029
1317.507, 66.449, 170.139
1336.670, 66.296, 168.971
1356.113, 65.963, 167.947
1375.838, 65.655, 167.463
1395.850, 65.109, 168.351
1416.153, 64.641, 170.977
1436.751, 64.467, 172.468
1457.649, 64.478, 175.920
1478.851, 64.588, 178.694
1500.362, 64.650, 178.027
1522.185, 64.675, 179.327
1544.326, 64.504, -179.697
1566.789, 64.677, -179.134
1589.578, 64.671, -177.222
1612.699, 64.879, -176.514
1636.156, 64.754, -176.119
1659.955, 64.700, -174.902
1684.099, 64.644, -172.227
1708.595, 64.995, -171.755
1733.447, 65.036, -170.216
1758.661, 65.267, -169.112
1784.241, 65.837, -168.119
1810.193, 65.929, -168.614
1836.523, 66.057, -168.955
1863.236, 66.365, -169.400
1890.338, 66.298, -170.788
1917.833, 66.446, -172.030
1945.729, 65.796, -173.030
1974.030, 65.669, -168.372
2002.743, 66.204, -164.387
2031.873, 66.595, -165.068
2061.428, 67.008, -165.515
2091.412, 67.355, -166.482
2121.832, 67.526, -167.183
2152.695, 67.945, -168.815
2184.007, 68.131, -169.436
2215.774, 68.150, -172.052
2248.003, 68.270, -174.464
2280.701, 68.146, -175.470
2313.874, 68.337, -173.796
2347.530, 68.525, -176.200
2381.676, 68.634, -176.507
2416.318, 68.654, 179.153
2451.464, 68.633, 176.401
2487.122, 67.972, 173.923
2523.298, 67.243, 177.194
2560.000, 67.373, -179.447
2597.236, 67.749, -176.886
2635.014, 68.157, -178.098
2673.341, 68.345, -177.392
2712.226, 68.415, -178.864
2751.676, 68.673, -179.549
2791.700, 68.849, 179.068
2832.306, 69.025, 176.731
2873.503, 68.984, 175.273
2915.299, 69.123, 173.086
2957.703, 69.083, 172.607
3000.724, 69.329, 170.152
3044.370, 69.157, 166.985
3088.652, 68.657, 166.226
3133.577, 68.600, 166.785
3179.156, 68.852, 166.941
3225.398, 68.861, 165.367
3272.312, 68.878, 163.017
3319.909, 68.862, 161.865
3368.198, 68.739, 159.574
3417.190, 68.626, 156.982
3466.894, 68.294, 155.839
3517.321, 68.223, 153.112
3568.482, 67.904, 149.353
3620.387, 67.106, 146.439
3673.046, 65.899, 147.933
3726.472, 65.478, 153.985
3780.675, 65.700, 155.769
3835.666, 65.720, 157.079
3891.457, 65.455, 157.634
3948.060, 65.340, 158.201
4005.486, 65.226, 160.603
4063.747, 65.436, 160.880
4122.855, 65.504, 159.439
4182.824, 64.884, 156.652
4243.664, 63.528, 161.133
4305.390, 64.085, 171.261
4368.013, 65.046, 175.176
4431.547, 65.715, 174.379
4496.005, 65.973, 172.731
4561.401, 66.255, 170.327
4627.749, 66.474, 169.481
4695.061, 66.719, 166.389
4763.352, 66.158, 161.026
4832.637, 64.887, 168.544
4902.929, 65.853, 171.754
4974.244, 66.163, 171.340
5046.596, 66.363, 170.854
5120.000, 66.316, 171.332
5194.472, 66.550, 172.554
5270.027, 67.003, 173.591
5346.682, 67.212, 174.681
5424.451, 67.982, 177.249
5503.352, 69.045, 175.146
5583.399, 69.859, 171.097
5664.612, 70.404, 165.664
5747.006, 70.946, 159.144
5830.598, 71.150, 150.667
5915.406, 70.828, 142.955
6001.447, 70.360, 136.537
6088.740, 69.730, 131.052
6177.303, 69.054, 127.331
6267.154, 68.322, 124.618
6358.312, 67.575, 122.603
6450.796, 67.030, 121.048
6544.625, 66.439, 118.135
6639.818, 65.435, 117.108
6736.397, 64.770, 118.595
6834.380, 64.040, 121.071
6933.789, 63.623, 125.259
7034.643, 63.833, 128.212
7136.964, 64.406, 127.810
7240.773, 64.087, 122.743
7346.093, 63.658, 124.526
7452.944, 64.191, 124.534
7561.350, 64.231, 120.488
7671.332, 64.231, 114.389
7782.915, 63.678, 108.688
7896.120, 63.003, 102.277
8010.971, 62.019, 98.283
8127.493, 60.789, 96.484
8245.711, 59.977, 92.441
8365.647, 57.992, 87.629
8487.328, 56.282, 91.381
8610.779, 54.301, 97.763
8736.026, 54.466, 109.975
8863.095, 55.277, 109.416
8992.011, 54.801, 101.787
9122.803, 54.467, 86.430
9255.497, 50.514, 72.391
9390.121, 47.043, 53.397
9526.704, 41.595, 4.670
9665.273, 45.251, -64.300
9805.857, 50.868, -97.554
9948.487, 54.049, -119.992
10093.191, 55.204, -135.325
10240.000, 55.346, -145.400
10388.944, 55.511, -146.543
10540.055, 55.847, -146.667
10693.363, 56.643, -142.260
10848.902, 58.152, -146.659
11006.703, 58.464, -152.035
11166.799, 58.631, -154.302
11329.224, 58.741, -156.487
11494.012, 58.518, -155.634
11661.195, 58.722, -148.161
11830.812, 60.708, -139.957
12002.895, 63.910, -146.050
12177.480, 65.452, -165.843
12354.606, 65.098, -177.662
12534.309, 66.038, 174.172
12716.624, 66.820, 155.345
12901.592, 66.104, 132.203
13089.250, 64.209, 112.696
13279.637, 62.123, 95.927
13472.794, 59.882, 73.242
13668.760, 56.012, 36.541
13867.577, 51.474, -30.962
14069.285, 53.079, -108.121
14273.928, 55.244, -154.455
14481.547, 55.199, 173.383
14692.186, 52.745, 141.423
14905.889, 45.174, 114.103
15122.700, 24.591, -33.605
15342.664, 46.287, -74.185
15565.829, 51.866, -97.321
15792.239, 52.174, -103.845
16021.942, 56.591, -113.168
16254.986, 57.268, -136.040
16491.422, 55.606, -146.304
16731.295, 53.966, -144.818
16974.656, 55.033, -142.952
17221.559, 54.049, -147.895
17472.053, 53.903, -139.772
17726.189, 55.085, -140.228
17984.021, 54.874, -145.070
18245.605, 54.954, -146.771
18510.994, 53.972, -151.634
18780.242, 52.758, -141.058
19053.408, 54.391, -133.356
19330.547, 55.435, -139.038
19611.715, 55.950, -144.845
19896.975, 55.564, -153.984
