* Measurement data measured by REW V5.19
* Source: ASIO MOTU M Series, In 1
* Format: 512k Log Swept Sine, 2 sweeps at -10.0 dBFS  With no timing reference
* Dated: 10 Sep, 2020 6:40:47 PM
* REW Settings:
*  C-weighting compensation: Off
*  Target level: 75.0 dB
* Note: ; 
* Measurement: Sep 10 18:40:47
* Smoothing: None
* Frequency Step: 1/48 octave
* Start Frequency: 10.1 Hz
*
* Freq(Hz), SPL(dB), Phase(degrees)
10.145, 52.616, -18.519
10.293, 52.898, -20.255
10.443, 53.180, -22.170
10.595, 53.409, -23.934
10.749, 53.607, -25.640
10.905, 53.772, -27.196
11.064, 53.911, -28.582
11.225, 54.037, -29.669
11.388, 54.156, -30.477
11.554, 54.301, -30.973
11.722, 54.472, -31.191
11.892, 54.704, -31.317
12.065, 54.991, -31.394
12.241, 55.336, -31.752
12.419, 55.726, -32.411
12.599, 56.126, -33.602
12.782, 56.520, -35.276
12.968, 56.869, -37.462
13.157, 57.152, -39.999
13.348, 57.350, -42.823
13.543, 57.452, -45.643
13.740, 57.454, -48.371
13.939, 57.368, -50.656
14.142, 57.220, -52.395
14.348, 57.040, -53.341
14.557, 56.901, -53.570
14.768, 56.835, -53.128
14.983, 56.903, -52.513
15.201, 57.080, -52.099
15.422, 57.354, -52.251
15.646, 57.639, -53.165
15.874, 57.897, -54.680
16.105, 58.083, -56.636
16.339, 58.184, -58.566
16.577, 58.230, -60.190
16.818, 58.256, -61.297
17.063, 58.340, -61.815
17.311, 58.538, -62.169
17.563, 58.854, -62.786
17.818, 59.263, -64.152
18.077, 59.675, -66.555
18.340, 60.002, -69.796
18.607, 60.192, -73.499
18.877, 60.214, -77.141
19.152, 60.078, -80.080
19.431, 59.867, -81.689
19.713, 59.720, -81.849
20.000, 59.763, -81.142
20.291, 60.032, -80.610
20.586, 60.443, -81.272
20.885, 60.817, -83.465
21.189, 60.993, -86.673
21.497, 60.889, -89.846
21.810, 60.527, -91.691
22.127, 60.074, -91.019
22.449, 59.852, -87.728
22.776, 60.117, -83.729
23.107, 60.786, -81.613
23.443, 61.532, -82.453
23.784, 62.076, -85.559
24.130, 62.300, -89.554
24.481, 62.228, -93.111
24.837, 61.988, -95.307
25.198, 61.761, -95.969
25.565, 61.689, -95.807
25.937, 61.779, -95.835
26.314, 61.938, -96.559
26.697, 62.082, -97.823
27.085, 62.192, -99.255
27.479, 62.291, -100.671
27.879, 62.394, -102.080
28.284, 62.504, -103.487
28.696, 62.625, -104.881
29.113, 62.764, -106.393
29.537, 62.879, -108.203
29.966, 62.893, -110.042
30.402, 62.796, -111.005
30.844, 62.769, -110.314
31.293, 63.087, -109.144
31.748, 63.694, -110.251
32.210, 64.141, -114.771
32.678, 63.986, -120.797
33.154, 63.119, -124.581
33.636, 62.076, -121.823
34.125, 62.027, -114.411
34.621, 62.946, -111.506
35.125, 63.610, -114.764
35.636, 63.550, -118.951
36.154, 63.177, -119.424
36.680, 63.276, -117.245
37.214, 63.863, -117.789
37.755, 64.204, -121.809
38.304, 64.005, -125.785
38.861, 63.601, -126.774
39.427, 63.440, -125.704
40.000, 63.506, -124.973
40.582, 63.571, -124.521
41.172, 63.709, -123.699
41.771, 63.987, -123.537
42.379, 64.213, -124.778
42.995, 64.228, -126.466
43.620, 64.084, -127.481
44.255, 63.936, -127.430
44.898, 63.959, -127.113
45.552, 64.074, -128.367
46.214, 63.889, -130.886
46.886, 63.388, -131.031
47.568, 63.321, -128.167
48.260, 63.778, -128.228
48.962, 63.828, -131.419
49.674, 63.446, -131.792
50.397, 63.527, -129.426
51.130, 63.935, -129.908
51.874, 63.988, -131.909
52.628, 63.857, -132.295
53.394, 63.844, -131.929
54.170, 63.880, -131.877
54.958, 63.879, -132.147
55.758, 63.793, -131.949
56.569, 63.864, -130.847
57.391, 64.110, -131.131
58.226, 64.143, -132.145
59.073, 64.176, -131.713
59.932, 64.367, -131.734
60.804, 64.439, -131.827
61.688, 64.639, -131.072
62.586, 64.914, -131.787
63.496, 64.951, -132.716
64.420, 64.974, -132.611
65.357, 65.099, -132.148
66.307, 65.420, -132.242
67.272, 65.695, -134.067
68.250, 65.840, -135.602
69.243, 66.034, -137.518
70.250, 66.049, -139.459
71.272, 66.088, -140.392
72.309, 66.124, -141.650
73.360, 66.066, -142.198
74.427, 66.168, -142.174
75.510, 66.265, -143.798
76.608, 66.106, -144.239
77.723, 66.309, -144.366
78.853, 66.276, -146.868
80.000, 66.142, -147.227
81.164, 66.124, -149.391
82.344, 65.739, -149.213
83.542, 66.099, -149.411
84.757, 65.866, -152.496
85.990, 65.883, -151.538
87.241, 65.916, -153.316
88.510, 65.896, -152.607
89.797, 66.033, -153.723
91.103, 65.887, -154.065
92.428, 65.884, -154.686
93.773, 65.675, -154.772
95.137, 65.739, -155.141
96.520, 65.664, -155.562
97.924, 65.672, -157.082
99.349, 65.539, -155.737
100.794, 65.701, -157.099
102.260, 65.741, -156.104
103.747, 65.636, -157.253
105.256, 65.686, -156.766
106.787, 65.597, -155.085
108.340, 65.822, -156.979
109.916, 65.666, -157.478
111.515, 65.766, -157.153
113.137, 65.645, -159.075
114.783, 65.941, -158.263
116.452, 65.746, -158.738
118.146, 65.763, -160.371
119.865, 65.648, -159.206
121.608, 65.569, -160.704
123.377, 65.568, -160.525
125.171, 65.526, -160.598
126.992, 65.628, -160.862
128.839, 65.505, -160.362
130.713, 65.441, -160.872
132.615, 65.355, -160.584
134.543, 65.482, -160.509
136.500, 65.438, -161.412
138.486, 65.539, -161.798
140.500, 65.436, -161.524
142.544, 65.501, -161.990
144.617, 65.622, -162.237
146.721, 65.563, -161.675
148.855, 65.593, -161.844
151.020, 65.524, -162.369
153.217, 65.461, -162.890
155.445, 65.561, -162.239
157.706, 65.519, -163.180
160.000, 65.436, -162.554
162.327, 65.581, -163.190
164.688, 65.353, -163.286
167.084, 65.445, -163.168
169.514, 65.450, -163.249
171.980, 65.370, -163.506
174.481, 65.570, -163.095
177.019, 65.538, -163.871
179.594, 65.516, -163.398
182.206, 65.528, -163.762
184.856, 65.571, -164.746
187.545, 65.622, -164.278
190.273, 65.672, -163.773
193.041, 65.538, -163.683
195.849, 65.509, -164.746
198.697, 65.622, -164.400
201.587, 65.608, -164.451
204.520, 65.624, -164.670
207.494, 65.621, -164.924
210.512, 65.669, -164.165
213.574, 65.525, -164.129
216.681, 65.617, -164.839
219.833, 65.680, -164.658
223.030, 65.653, -164.542
226.274, 65.733, -165.026
229.565, 65.678, -164.483
232.905, 65.542, -164.446
236.292, 65.518, -165.025
239.729, 65.585, -164.985
243.216, 65.730, -165.194
246.754, 65.764, -165.074
250.343, 65.765, -164.892
253.984, 65.654, -164.703
257.678, 65.731, -165.353
261.426, 65.778, -164.574
265.229, 65.769, -165.512
269.087, 65.759, -164.906
273.001, 65.873, -164.885
276.972, 65.883, -165.685
281.000, 65.778, -165.188
285.088, 65.887, -165.811
289.234, 65.888, -164.520
293.441, 65.819, -165.589
297.710, 65.746, -165.359
302.040, 65.900, -165.967
306.433, 66.056, -165.940
310.890, 65.878, -166.170
315.412, 65.960, -165.477
320.000, 65.967, -166.068
324.655, 65.947, -165.661
329.377, 65.999, -164.880
334.168, 66.041, -166.056
339.028, 66.000, -166.615
343.959, 66.063, -166.331
348.962, 66.037, -165.594
354.038, 66.152, -165.789
359.188, 66.188, -165.325
364.412, 66.276, -165.569
369.713, 66.318, -165.695
375.090, 66.192, -166.133
380.546, 66.258, -166.761
386.081, 66.223, -166.787
391.697, 66.213, -165.887
397.395, 66.398, -166.589
403.175, 66.379, -166.576
409.039, 66.424, -166.671
414.989, 66.356, -167.017
421.025, 66.457, -166.996
427.149, 66.422, -166.245
433.362, 66.572, -166.721
439.665, 66.496, -167.015
446.060, 66.664, -168.048
452.548, 66.698, -168.391
459.131, 66.737, -168.794
465.809, 66.586, -168.375
472.584, 66.796, -168.407
479.458, 66.729, -169.062
486.432, 66.715, -168.798
493.507, 66.801, -169.337
500.686, 66.744, -169.771
507.968, 66.772, -169.655
515.357, 66.764, -170.867
522.853, 66.813, -170.808
530.458, 66.926, -170.622
538.174, 66.947, -171.268
546.002, 66.858, -172.365
553.943, 66.810, -172.657
562.001, 66.737, -173.844
570.175, 66.716, -172.778
578.469, 66.741, -171.984
586.883, 66.471, -174.576
595.419, 66.498, -174.845
604.080, 66.344, -173.587
612.866, 66.312, -175.905
621.780, 66.167, -174.528
630.824, 66.143, -176.388
640.000, 65.921, -175.154
649.309, 65.704, -172.971
658.753, 65.644, -171.394
668.335, 65.928, -171.605
678.056, 65.810, -169.711
687.919, 65.793, -169.951
697.925, 65.921, -170.194
708.076, 65.924, -169.511
718.376, 66.244, -170.319
728.825, 66.389, -168.976
739.426, 66.344, -169.769
750.181, 66.372, -168.007
761.093, 65.947, -166.704
772.163, 66.575, -170.286
783.394, 66.432, -170.139
794.789, 66.311, -169.630
806.349, 66.119, -168.872
818.078, 66.035, -169.196
829.977, 66.221, -167.643
842.050, 66.177, -167.023
854.297, 66.652, -166.970
866.724, 66.629, -166.730
879.330, 66.754, -166.294
892.120, 66.756, -167.097
905.097, 66.875, -165.151
918.262, 67.138, -166.619
931.618, 67.221, -166.156
945.169, 67.355, -165.209
958.917, 67.706, -167.013
972.864, 67.567, -167.694
987.015, 67.677, -169.769
1001.371, 67.775, -170.179
1015.937, 68.048, -171.273
1030.714, 67.772, -172.802
1045.706, 67.981, -173.453
1060.916, 67.911, -175.338
1076.347, 67.805, -175.635
1092.003, 67.795, -176.512
1107.887, 67.720, -177.332
1124.001, 67.582, -178.545
1140.350, 67.668, -179.725
1156.937, 67.512, -178.704
1173.765, 67.333, 177.104
1190.838, 67.076, 177.847
1208.159, 67.109, 177.378
1225.732, 66.715, 175.286
1243.561, 66.458, 176.513
1261.649, 66.153, 174.488
1280.000, 65.717, 176.739
1298.618, 65.571, 177.222
1317.507, 65.559, -179.781
1336.670, 65.468, -178.536
1356.113, 65.497, -178.028
1375.838, 65.618, -178.675
1395.850, 65.409, -177.213
1416.153, 65.265, -176.143
1436.751, 65.336, -177.521
1457.649, 64.841, -176.912
1478.851, 64.751, -173.849
1500.362, 65.022, -175.212
1522.185, 64.643, -175.535
1544.326, 64.904, -174.621
1566.789, 64.854, -172.197
1589.578, 64.678, -170.418
1612.699, 64.893, -168.810
1636.156, 64.883, -167.211
1659.955, 64.793, -164.287
1684.099, 64.735, -165.452
1708.595, 64.661, -166.723
1733.447, 64.892, -163.188
1758.661, 64.405, -165.576
1784.241, 64.937, -161.877
1810.193, 64.828, -160.032
1836.523, 65.025, -160.266
1863.236, 64.851, -157.533
1890.338, 65.023, -154.165
1917.833, 64.989, -155.681
1945.729, 64.717, -151.024
1974.030, 64.885, -153.748
2002.743, 64.811, -148.076
2031.873, 64.882, -143.600
2061.428, 65.875, -144.745
2091.412, 65.764, -138.345
2121.832, 66.513, -137.279
2152.695, 66.549, -137.573
2184.007, 67.518, -139.028
2215.774, 67.854, -134.954
2248.003, 68.378, -133.536
2280.701, 68.668, -135.115
2313.874, 68.991, -134.390
2347.530, 69.508, -135.247
2381.676, 70.234, -133.860
2416.318, 70.896, -135.679
2451.464, 71.289, -135.524
2487.122, 71.634, -140.832
2523.298, 71.930, -141.026
2560.000, 72.038, -145.651
2597.236, 72.535, -149.228
2635.014, 72.985, -151.407
2673.341, 72.759, -154.340
2712.226, 72.941, -154.864
2751.676, 72.893, -153.345
2791.700, 73.617, -154.682
2832.306, 73.695, -156.134
2873.503, 74.169, -159.522
2915.299, 74.400, -163.731
2957.703, 74.554, -168.174
3000.724, 74.696, -171.485
3044.370, 74.920, -174.154
3088.652, 74.719, -177.106
3133.577, 74.537, -179.283
3179.156, 74.374, 177.742
3225.398, 74.424, 175.182
3272.312, 74.275, 173.148
3319.909, 74.289, 169.517
3368.198, 74.263, 166.022
3417.190, 73.766, 161.870
3466.894, 73.106, 161.951
3517.321, 72.987, 162.116
3568.482, 73.019, 162.145
3620.387, 72.846, 160.532
3673.046, 72.588, 158.594
3726.472, 72.677, 158.330
3780.675, 72.260, 157.007
3835.666, 72.572, 157.607
3891.457, 72.709, 152.740
3948.060, 72.701, 150.268
4005.486, 72.411, 147.935
4063.747, 71.962, 144.700
4122.855, 71.612, 142.747
4182.824, 70.811, 139.420
4243.664, 70.766, 140.578
4305.390, 70.711, 141.278
4368.013, 70.184, 137.357
4431.547, 69.837, 136.201
4496.005, 69.530, 135.701
4561.401, 68.890, 133.844
4627.749, 68.453, 132.669
4695.061, 67.814, 131.062
4763.352, 66.778, 131.352
4832.637, 66.005, 133.613
4902.929, 64.744, 138.220
4974.244, 65.001, 146.142
5046.596, 65.394, 149.001
5120.000, 65.332, 152.119
5194.472, 65.849, 152.676
5270.027, 65.735, 152.991
5346.682, 65.971, 153.882
5424.451, 66.512, 151.734
5503.352, 66.383, 152.104
5583.399, 66.074, 146.450
5664.612, 65.558, 149.540
5747.006, 64.933, 146.730
5830.598, 64.465, 149.477
5915.406, 63.784, 156.042
6001.447, 64.549, 164.808
6088.740, 65.277, 162.790
6177.303, 64.934, 162.647
6267.154, 64.814, 162.858
6358.312, 65.002, 169.173
6450.796, 65.766, 167.279
6544.625, 65.798, 167.550
6639.818, 65.997, 166.164
6736.397, 66.094, 166.887
6834.380, 66.689, 168.748
6933.789, 66.909, 165.040
7034.643, 66.786, 163.878
7136.964, 67.106, 162.567
7240.773, 66.916, 157.854
7346.093, 66.742, 156.744
7452.944, 66.912, 156.177
7561.350, 66.877, 158.345
7671.332, 67.147, 152.440
7782.915, 67.575, 154.304
7896.120, 67.578, 149.326
8010.971, 67.239, 146.923
8127.493, 67.290, 143.676
8245.711, 67.103, 144.846
8365.647, 67.236, 143.181
8487.328, 67.705, 132.135
8610.779, 66.777, 127.463
8736.026, 66.968, 120.454
8863.095, 65.629, 111.409
8992.011, 64.502, 107.344
9122.803, 62.877, 95.772
9255.497, 60.305, 97.260
9390.121, 58.919, 100.145
9526.704, 55.486, 99.390
9665.273, 54.616, 109.589
9805.857, 51.106, 124.576
9948.487, 50.710, 146.809
10093.191, 51.777, 178.164
10240.000, 54.854, -167.457
10388.944, 56.240, -161.716
10540.055, 59.744, -159.184
10693.363, 61.048, -171.678
10848.902, 62.278, -177.891
11006.703, 62.956, 170.549
11166.799, 62.957, 156.168
11329.224, 62.067, 146.085
11494.012, 60.320, 133.704
11661.195, 57.655, 135.238
11830.812, 56.678, 138.693
12002.895, 56.778, 138.989
12177.480, 54.060, 138.193
12354.606, 52.972, 133.887
12534.309, 49.867, 124.097
12716.624, 41.092, 136.231
12901.592, 38.912, -118.930
13089.250, 49.438, -85.151
13279.637, 55.247, -93.525
13472.794, 58.337, -100.263
13668.760, 60.367, -108.956
13867.577, 62.233, -116.783
14069.285, 63.540, -126.847
14273.928, 64.942, -137.196
14481.547, 65.874, -151.946
14692.186, 66.107, -169.911
14905.889, 65.463, 172.539
15122.700, 63.730, 157.353
15342.664, 61.780, 148.289
15565.829, 59.562, 143.649
15792.239, 56.772, 135.810
16021.942, 53.172, 130.135
16254.986, 41.806, 129.088
16491.422, 46.977, -105.564
16731.295, 54.937, -106.566
16974.656, 59.387, -126.828
17221.559, 60.486, -145.720
17472.053, 60.433, -166.224
17726.189, 58.122, -177.690
17984.021, 55.600, 178.136
18245.605, 53.665, -168.682
18510.994, 54.385, -150.993
18780.242, 56.080, -149.671
19053.408, 57.665, -157.548
19330.547, 57.335, -166.861
19611.715, 56.561, -176.107
19896.975, 55.263, -179.534
