* Measurement data measured by REW V5.19
* Source: ASIO MOTU M Series, In 1
* Format: 1M Log Swept Sine, 1 sweep at -10.0 dBFS  With no timing reference
* Dated: 30 Apr, 2021 9:39:52 PM
* REW Settings:
*  C-weighting compensation: Off
*  Target level: 75.0 dB
* Note: ; 
* Measurement: Apr 30 21:39:52
* Smoothing: 1/48 octave
* Frequency Step: 1/48 octave
* Start Frequency: 10.1 Hz
*
* Freq(Hz), SPL(dB), Phase(degrees)
10.145, 63.150, 77.879
10.293, 63.186, 77.210
10.443, 63.223, 76.316
10.595, 63.282, 75.155
10.749, 63.345, 73.952
10.905, 63.394, 73.049
11.064, 63.440, 72.251
11.225, 63.492, 71.322
11.388, 63.547, 70.334
11.554, 63.599, 69.364
11.722, 63.648, 68.401
11.892, 63.693, 67.437
12.065, 63.734, 66.473
12.241, 63.770, 65.498
12.419, 63.801, 64.530
12.599, 63.826, 63.615
12.782, 63.847, 62.741
12.968, 63.867, 61.899
13.157, 63.886, 61.103
13.348, 63.907, 60.364
13.543, 63.932, 59.657
13.740, 63.963, 58.976
13.939, 63.998, 58.301
14.142, 64.039, 57.626
14.348, 64.083, 56.936
14.557, 64.129, 56.225
14.768, 64.176, 55.490
14.983, 64.220, 54.740
15.201, 64.262, 53.980
15.422, 64.302, 53.215
15.646, 64.338, 52.457
15.874, 64.373, 51.706
16.105, 64.406, 50.964
16.339, 64.438, 50.228
16.577, 64.468, 49.496
16.818, 64.497, 48.767
17.063, 64.522, 48.042
17.311, 64.545, 47.329
17.563, 64.564, 46.633
17.818, 64.581, 45.961
18.077, 64.597, 45.317
18.340, 64.614, 44.697
18.607, 64.631, 44.094
18.877, 64.651, 43.498
19.152, 64.671, 42.900
19.431, 64.691, 42.292
19.713, 64.709, 41.679
20.000, 64.724, 41.067
20.291, 64.736, 40.468
20.586, 64.746, 39.889
20.885, 64.755, 39.331
21.189, 64.766, 38.789
21.497, 64.778, 38.250
21.810, 64.791, 37.705
22.127, 64.803, 37.152
22.449, 64.812, 36.601
22.776, 64.818, 36.065
23.107, 64.823, 35.557
23.443, 64.829, 35.077
23.784, 64.839, 34.613
24.130, 64.854, 34.143
24.481, 64.870, 33.650
24.837, 64.883, 33.134
25.198, 64.891, 32.615
25.565, 64.894, 32.118
25.937, 64.896, 31.660
26.314, 64.898, 31.234
26.697, 64.904, 30.821
27.085, 64.910, 30.403
27.479, 64.913, 29.985
27.879, 64.914, 29.587
28.284, 64.915, 29.222
28.696, 64.919, 28.876
29.113, 64.927, 28.515
29.537, 64.935, 28.116
29.966, 64.936, 27.697
30.402, 64.930, 27.299
30.844, 64.921, 26.954
31.293, 64.917, 26.644
31.748, 64.919, 26.331
32.210, 64.921, 25.996
32.678, 64.920, 25.666
33.154, 64.918, 25.377
33.636, 64.924, 25.125
34.125, 64.939, 24.864
34.621, 64.959, 24.555
35.125, 64.975, 24.207
35.636, 64.985, 23.866
36.154, 64.993, 23.569
36.680, 65.005, 23.305
37.214, 65.021, 23.037
37.755, 65.037, 22.751
38.304, 65.048, 22.470
38.861, 65.059, 22.225
39.427, 65.076, 21.994
40.000, 65.098, 21.712
40.582, 65.113, 21.359
41.172, 65.116, 21.010
41.771, 65.115, 20.725
42.379, 65.123, 20.445
42.995, 65.129, 20.099
43.620, 65.125, 19.754
44.255, 65.124, 19.461
44.898, 65.129, 19.099
45.552, 65.111, 18.657
46.214, 65.067, 18.429
46.886, 65.057, 18.457
47.568, 65.090, 18.235
48.260, 65.069, 17.702
48.962, 64.980, 17.638
49.674, 64.962, 18.186
50.397, 65.049, 18.353
51.130, 65.096, 17.864
51.874, 65.063, 17.528
52.628, 65.046, 17.544
53.394, 65.059, 17.453
54.170, 65.059, 17.297
54.958, 65.067, 17.239
55.758, 65.095, 17.079
56.569, 65.109, 16.824
57.391, 65.116, 16.705
58.226, 65.149, 16.627
59.073, 65.182, 16.397
59.932, 65.192, 16.242
60.804, 65.219, 16.217
61.688, 65.254, 16.020
62.586, 65.261, 15.833
63.496, 65.279, 15.718
64.420, 65.294, 15.486
65.357, 65.304, 15.319
66.307, 65.324, 15.101
67.272, 65.339, 14.982
68.250, 65.400, 14.824
69.243, 65.432, 14.290
70.250, 65.407, 14.030
71.272, 65.401, 14.064
72.309, 65.432, 14.131
73.360, 65.478, 13.846
74.427, 65.466, 13.469
75.510, 65.462, 13.329
76.608, 65.479, 13.096
77.723, 65.496, 12.790
78.853, 65.511, 12.545
80.000, 65.547, 12.258
81.164, 65.559, 11.899
82.344, 65.575, 11.706
83.542, 65.591, 11.359
84.757, 65.579, 11.159
85.990, 65.604, 10.980
87.241, 65.607, 10.529
88.510, 65.590, 10.207
89.797, 65.568, 9.826
91.103, 65.525, 9.556
92.428, 65.496, 9.439
93.773, 65.486, 9.236
95.137, 65.448, 9.003
96.520, 65.431, 9.076
97.924, 65.445, 8.864
99.349, 65.432, 8.662
100.794, 65.413, 8.491
102.260, 65.404, 8.420
103.747, 65.394, 8.335
105.256, 65.376, 8.263
106.787, 65.391, 8.359
108.340, 65.397, 7.939
109.916, 65.348, 7.812
111.515, 65.335, 7.930
113.137, 65.372, 7.956
114.783, 65.374, 7.699
116.452, 65.343, 7.653
118.146, 65.302, 7.692
119.865, 65.298, 7.939
121.608, 65.320, 7.723
123.377, 65.320, 7.563
125.171, 65.313, 7.349
126.992, 65.280, 7.302
128.839, 65.259, 7.416
130.713, 65.248, 7.305
132.615, 65.230, 7.434
134.543, 65.253, 7.364
136.500, 65.250, 7.279
138.486, 65.255, 7.240
140.500, 65.243, 7.257
142.544, 65.250, 7.312
144.617, 65.247, 7.399
146.721, 65.273, 7.349
148.855, 65.254, 7.310
151.020, 65.234, 7.290
153.217, 65.230, 7.206
155.445, 65.229, 7.035
157.706, 65.251, 7.182
160.000, 65.318, 7.416
162.327, 65.263, 6.745
164.688, 65.181, 7.196
167.084, 65.200, 7.377
169.514, 65.214, 7.592
171.980, 65.242, 7.653
174.481, 65.256, 7.646
177.019, 65.270, 7.736
179.594, 65.288, 7.944
182.206, 65.315, 7.804
184.856, 65.332, 7.729
187.545, 65.359, 7.798
190.273, 65.376, 7.942
193.041, 65.380, 7.812
195.849, 65.423, 7.633
198.697, 65.451, 7.532
201.587, 65.474, 7.571
204.520, 65.482, 7.425
207.494, 65.489, 7.279
210.512, 65.503, 7.141
213.574, 65.507, 6.997
216.681, 65.510, 6.855
219.833, 65.527, 6.851
223.030, 65.529, 6.880
226.274, 65.545, 6.597
229.565, 65.553, 6.391
232.905, 65.596, 6.525
236.292, 65.561, 6.373
239.729, 65.558, 6.143
243.216, 65.559, 5.750
246.754, 65.528, 5.785
250.343, 65.546, 5.550
253.984, 65.498, 5.716
257.678, 65.452, 5.602
261.426, 65.445, 5.622
265.229, 65.437, 6.025
269.087, 65.426, 6.216
273.001, 65.437, 6.306
276.972, 65.448, 6.472
281.000, 65.464, 6.586
285.088, 65.482, 6.686
289.234, 65.506, 6.571
293.441, 65.540, 6.561
297.710, 65.551, 6.677
302.040, 65.518, 6.748
306.433, 65.605, 6.549
310.890, 65.632, 6.071
315.412, 65.614, 6.333
320.000, 65.628, 6.360
324.655, 65.621, 6.616
329.377, 65.629, 6.358
334.168, 65.663, 6.187
339.028, 65.660, 6.160
343.959, 65.684, 6.127
348.962, 65.690, 6.066
354.038, 65.691, 5.905
359.188, 65.708, 5.705
364.412, 65.687, 5.482
369.713, 65.677, 5.518
375.090, 65.680, 5.525
380.546, 65.673, 5.435
386.081, 65.632, 5.293
391.697, 65.601, 5.375
397.395, 65.577, 5.600
403.175, 65.585, 5.779
409.039, 65.599, 5.950
414.989, 65.603, 5.984
421.025, 65.590, 6.013
427.149, 65.580, 6.314
433.362, 65.602, 6.341
439.665, 65.579, 6.511
446.060, 65.598, 6.778
452.548, 65.646, 6.956
459.131, 65.605, 7.063
465.809, 65.625, 7.244
472.584, 65.677, 7.400
479.458, 65.721, 7.574
486.432, 65.730, 7.660
493.507, 65.757, 7.854
500.686, 65.821, 8.047
507.968, 65.885, 8.129
515.357, 65.938, 8.266
522.853, 66.025, 8.032
530.458, 66.041, 7.801
538.174, 66.037, 7.972
546.002, 66.127, 8.220
553.943, 66.230, 7.751
562.001, 66.257, 7.052
570.175, 66.196, 6.581
578.469, 66.121, 6.923
586.883, 66.208, 7.514
595.419, 66.277, 7.183
604.080, 66.300, 7.042
612.866, 66.316, 7.008
621.780, 66.354, 6.838
630.824, 66.379, 6.785
640.000, 66.430, 6.806
649.309, 66.467, 6.441
658.753, 66.490, 6.271
668.335, 66.487, 6.198
678.056, 66.543, 6.179
687.919, 66.558, 5.819
697.925, 66.580, 5.945
708.076, 66.615, 5.751
718.376, 66.616, 5.795
728.825, 66.695, 5.948
739.426, 66.797, 5.745
750.181, 66.859, 5.466
761.093, 66.949, 5.274
772.163, 67.065, 4.551
783.394, 67.083, 3.542
794.789, 67.082, 3.132
806.349, 67.170, 2.550
818.078, 67.187, 1.398
829.977, 67.090, 0.541
842.050, 67.045, 0.477
854.297, 67.092, 0.050
866.724, 67.058, -0.851
879.330, 67.012, -1.298
892.120, 66.981, -1.926
905.097, 66.899, -2.664
918.262, 66.810, -2.994
931.618, 66.757, -2.787
945.169, 66.700, -3.630
958.917, 66.642, -2.921
972.864, 66.726, -3.890
987.015, 66.563, -4.240
1001.371, 66.610, -3.968
1015.937, 66.678, -5.100
1030.714, 66.442, -6.916
1045.706, 66.124, -5.748
1060.916, 66.265, -4.938
1076.347, 66.297, -6.061
1092.003, 66.119, -6.764
1107.887, 65.926, -6.445
1124.001, 65.920, -6.231
1140.350, 65.819, -6.290
1156.937, 65.698, -6.739
1173.765, 65.527, -5.846
1190.838, 65.540, -5.880
1208.159, 65.430, -4.564
1225.732, 65.587, -4.925
1243.561, 65.473, -5.399
1261.649, 65.440, -5.273
1280.000, 65.473, -5.714
1298.618, 65.309, -6.821
1317.507, 65.164, -6.320
1336.670, 65.013, -7.730
1356.113, 64.553, -6.351
1375.838, 64.534, -4.857
1395.850, 64.408, -4.251
1416.153, 64.279, -2.472
1436.751, 64.373, -0.682
1457.649, 64.574, -0.347
1478.851, 64.534, 0.246
1500.362, 64.751, -0.130
1522.185, 64.600, -1.295
1544.326, 64.397, -0.386
1566.789, 64.515, 0.332
1589.578, 64.464, -0.069
1612.699, 64.367, -0.378
1636.156, 64.153, -0.110
1659.955, 63.972, 0.820
1684.099, 63.892, 1.557
1708.595, 63.690, 3.065
1733.447, 63.722, 3.905
1758.661, 63.505, 5.141
1784.241, 63.447, 7.021
1810.193, 63.355, 8.792
1836.523, 63.380, 11.367
1863.236, 63.515, 14.171
1890.338, 63.851, 15.349
1917.833, 63.917, 16.300
1945.729, 64.087, 17.839
1974.030, 64.366, 19.906
2002.743, 64.918, 19.812
2031.873, 65.014, 17.623
2061.428, 64.846, 17.833
2091.412, 64.906, 18.746
2121.832, 64.856, 19.982
2152.695, 65.049, 21.443
2184.007, 65.081, 23.145
2215.774, 65.479, 25.079
2248.003, 65.808, 25.799
2280.701, 66.222, 26.107
2313.874, 66.516, 25.421
2347.530, 66.754, 24.917
2381.676, 66.847, 24.542
2416.318, 67.181, 25.772
2451.464, 67.571, 24.345
2487.122, 67.809, 23.527
2523.298, 67.941, 21.606
2560.000, 67.988, 20.693
2597.236, 67.941, 20.469
2635.014, 68.116, 21.404
2673.341, 68.398, 21.160
2712.226, 68.614, 20.589
2751.676, 68.807, 20.133
2791.700, 69.147, 19.797
2832.306, 69.440, 17.674
2873.503, 69.535, 15.648
2915.299, 69.570, 14.468
2957.703, 69.670, 13.017
3000.724, 69.684, 12.311
3044.370, 69.754, 11.289
3088.652, 69.896, 10.573
3133.577, 69.959, 9.875
3179.156, 70.187, 8.630
3225.398, 70.341, 7.041
3272.312, 70.354, 4.853
3319.909, 70.352, 3.144
3368.198, 70.290, 2.041
3417.190, 70.280, 0.962
3466.894, 70.259, -0.387
3517.321, 70.201, -1.044
3568.482, 70.243, -1.544
3620.387, 70.317, -2.913
3673.046, 70.279, -4.276
3726.472, 70.273, -4.759
3780.675, 70.346, -5.926
3835.666, 70.344, -7.329
3891.457, 70.374, -8.442
3948.060, 70.415, -9.960
4005.486, 70.431, -11.662
4063.747, 70.356, -13.884
4122.855, 70.176, -15.753
4182.824, 70.023, -17.059
4243.664, 69.813, -18.440
4305.390, 69.542, -19.205
4368.013, 69.314, -19.529
4431.547, 69.018, -19.425
4496.005, 68.803, -17.373
4561.401, 68.993, -15.153
4627.749, 69.387, -14.873
4695.061, 69.730, -16.101
4763.352, 69.967, -18.324
4832.637, 70.058, -20.725
4902.929, 70.094, -22.913
4974.244, 70.098, -25.130
5046.596, 70.114, -27.232
5120.000, 70.115, -30.039
5194.472, 69.977, -32.983
5270.027, 69.754, -35.328
5346.682, 69.582, -37.346
5424.451, 69.402, -39.723
5503.352, 69.193, -42.418
5583.399, 68.806, -45.369
5664.612, 68.313, -47.218
5747.006, 67.845, -48.303
5830.598, 67.424, -49.071
5915.406, 67.014, -49.671
6001.447, 66.624, -50.159
6088.740, 66.162, -50.646
6177.303, 65.711, -49.922
6267.154, 65.394, -49.091
6358.312, 65.141, -48.436
6450.796, 64.915, -48.128
6544.625, 64.618, -47.807
6639.818, 64.390, -46.816
6736.397, 64.264, -46.004
6834.380, 64.180, -45.886
6933.789, 64.037, -45.775
7034.643, 63.955, -45.533
7136.964, 63.957, -45.525
7240.773, 64.051, -46.300
7346.093, 64.094, -48.479
7452.944, 64.027, -51.059
7561.350, 63.884, -54.447
7671.332, 63.564, -58.382
7782.915, 63.035, -62.493
7896.120, 62.283, -66.026
8010.971, 61.324, -68.502
8127.493, 60.278, -68.984
8245.711, 59.323, -68.097
8365.647, 58.507, -66.352
8487.328, 57.929, -64.716
8610.779, 57.452, -64.697
8736.026, 56.929, -66.366
8863.095, 56.272, -71.929
8992.011, 54.456, -80.956
9122.803, 51.270, -86.927
9255.497, 46.183, -82.590
9390.121, 39.315, -25.934
9526.704, 44.234, 48.977
9665.273, 49.915, 62.852
9805.857, 53.955, 61.727
9948.487, 56.974, 55.641
10093.191, 59.241, 46.057
10240.000, 60.649, 33.704
10388.944, 61.076, 21.499
10540.055, 60.899, 12.913
10693.363, 60.568, 7.143
10848.902, 60.148, 3.492
11006.703, 59.775, 1.416
11166.799, 59.462, 0.254
11329.224, 59.245, -0.232
11494.012, 59.122, -1.050
11661.195, 58.993, -1.881
11830.812, 58.871, -3.197
12002.895, 58.680, -4.568
12177.480, 58.493, -5.991
12354.606, 58.303, -8.142
12534.309, 57.998, -11.573
12716.624, 57.359, -16.191
12901.592, 56.218, -20.147
13089.250, 54.647, -21.567
13279.637, 52.784, -19.119
13472.794, 50.929, -12.236
13668.760, 49.195, -1.677
13867.577, 47.585, 14.452
14069.285, 47.027, 40.293
14273.928, 49.373, 65.589
14481.547, 52.969, 77.327
14692.186, 55.691, 74.836
14905.889, 57.172, 68.291
15122.700, 57.906, 63.228
15342.664, 58.362, 60.649
15565.829, 58.807, 59.825
15792.239, 59.391, 60.032
16021.942, 60.233, 60.340
16254.986, 61.413, 59.386
16491.422, 62.786, 54.600
16731.295, 63.827, 45.005
16974.656, 64.095, 32.595
17221.559, 63.518, 21.475
17472.053, 62.351, 13.790
17726.189, 60.734, 11.775
17984.021, 59.323, 18.176
18245.605, 59.541, 29.409
18510.994, 61.412, 33.297
18780.242, 62.920, 24.535
19053.408, 63.032, 11.480
19330.547, 62.237, 2.783
19611.715, 61.434, -1.390
19896.975, 60.978, -3.800
