* Measurement data measured by REW V5.19
* Source: ASIO MOTU M Series, In 1
* Format: 1M Log Swept Sine, 1 sweep at -10.0 dBFS  With no timing reference
* Dated: 14 Feb, 2021 12:10:58 AM
* REW Settings:
*  C-weighting compensation: Off
*  Target level: 75.0 dB
* Note: ; 
* Measurement: Feb 14 0:10:58
* Smoothing: 1/48 octave
* Frequency Step: 1/48 octave
* Start Frequency: 10.1 Hz
*
* Freq(Hz), SPL(dB), Phase(degrees)
10.145, 59.248, 70.733
10.293, 59.265, 70.212
10.443, 59.282, 69.526
10.595, 59.306, 68.643
10.749, 59.331, 67.749
10.905, 59.349, 67.122
11.064, 59.365, 66.611
11.225, 59.387, 66.043
11.388, 59.414, 65.469
11.554, 59.446, 64.944
11.722, 59.485, 64.455
11.892, 59.531, 63.967
12.065, 59.585, 63.475
12.241, 59.646, 62.929
12.419, 59.712, 62.337
12.599, 59.779, 61.702
12.782, 59.846, 61.015
12.968, 59.908, 60.256
13.157, 59.964, 59.453
13.348, 60.011, 58.618
13.543, 60.046, 57.775
13.740, 60.070, 56.929
13.939, 60.083, 56.118
14.142, 60.087, 55.351
14.348, 60.082, 54.651
14.557, 60.072, 54.022
14.768, 60.060, 53.469
14.983, 60.049, 52.990
15.201, 60.041, 52.571
15.422, 60.038, 52.198
15.646, 60.040, 51.847
15.874, 60.045, 51.502
16.105, 60.051, 51.150
16.339, 60.053, 50.790
16.577, 60.048, 50.444
16.818, 60.035, 50.136
17.063, 60.013, 49.911
17.311, 59.990, 49.806
17.563, 59.974, 49.827
17.818, 59.973, 49.959
18.077, 59.999, 50.128
18.340, 60.049, 50.230
18.607, 60.115, 50.194
18.877, 60.182, 49.979
19.152, 60.233, 49.610
19.431, 60.256, 49.214
19.713, 60.258, 48.934
20.000, 60.257, 48.861
20.291, 60.281, 48.981
20.586, 60.355, 49.146
20.885, 60.479, 49.111
21.189, 60.628, 48.651
21.497, 60.753, 47.722
21.810, 60.815, 46.506
22.127, 60.798, 45.331
22.449, 60.724, 44.521
22.776, 60.644, 44.216
23.107, 60.605, 44.268
23.443, 60.622, 44.336
23.784, 60.653, 44.161
24.130, 60.639, 43.844
24.481, 60.555, 43.864
24.837, 60.453, 44.766
25.198, 60.460, 46.612
25.565, 60.687, 48.663
25.937, 61.105, 49.801
26.314, 61.564, 49.369
26.697, 61.901, 47.599
27.085, 62.037, 45.338
27.479, 61.999, 43.464
27.879, 61.881, 42.386
28.284, 61.775, 41.883
28.696, 61.695, 41.461
29.113, 61.582, 40.911
29.537, 61.391, 40.578
29.966, 61.159, 40.965
30.402, 60.983, 42.097
30.844, 60.924, 43.387
31.293, 60.930, 44.240
31.748, 60.906, 44.713
32.210, 60.824, 45.368
32.678, 60.744, 46.616
33.154, 60.740, 48.327
33.636, 60.824, 50.145
34.125, 60.975, 51.993
34.621, 61.209, 53.996
35.125, 61.585, 55.970
35.636, 62.117, 57.295
36.154, 62.726, 57.341
36.680, 63.290, 55.987
37.214, 63.708, 53.591
37.755, 63.931, 50.786
38.304, 63.961, 48.223
38.861, 63.846, 46.479
39.427, 63.669, 45.882
40.000, 63.533, 46.445
40.582, 63.532, 47.781
41.172, 63.710, 49.263
41.771, 64.055, 50.252
42.379, 64.512, 50.197
42.995, 64.974, 48.734
43.620, 65.301, 46.053
44.255, 65.408, 43.055
44.898, 65.342, 40.819
45.552, 65.249, 39.678
46.214, 65.220, 39.060
46.886, 65.215, 38.499
47.568, 65.198, 38.223
48.260, 65.222, 38.445
48.962, 65.345, 38.835
49.674, 65.561, 38.958
50.397, 65.842, 38.549
51.130, 66.148, 37.366
51.874, 66.406, 35.350
52.628, 66.554, 32.846
53.394, 66.590, 30.342
54.170, 66.546, 28.123
54.958, 66.457, 26.259
55.758, 66.344, 24.737
56.569, 66.224, 23.518
57.391, 66.108, 22.532
58.226, 65.997, 21.700
59.073, 65.891, 20.988
59.932, 65.790, 20.393
60.804, 65.696, 19.896
61.688, 65.612, 19.479
62.586, 65.537, 19.123
63.496, 65.469, 18.814
64.420, 65.410, 18.567
65.357, 65.362, 18.329
66.307, 65.320, 18.080
67.272, 65.281, 17.796
68.250, 65.232, 17.510
69.243, 65.192, 17.360
70.250, 65.175, 17.115
71.272, 65.142, 16.786
72.309, 65.107, 16.577
73.360, 65.081, 16.371
74.427, 65.053, 16.175
75.510, 65.028, 16.002
76.608, 65.005, 15.829
77.723, 64.980, 15.653
78.853, 64.956, 15.514
80.000, 64.936, 15.376
81.164, 64.917, 15.250
82.344, 64.902, 15.133
83.542, 64.889, 14.993
84.757, 64.873, 14.844
85.990, 64.855, 14.724
87.241, 64.840, 14.609
88.510, 64.824, 14.490
89.797, 64.809, 14.397
91.103, 64.791, 14.301
92.428, 64.773, 14.281
93.773, 64.762, 14.264
95.137, 64.754, 14.261
96.520, 64.753, 14.272
97.924, 64.760, 14.256
99.349, 64.766, 14.214
100.794, 64.778, 14.150
102.260, 64.786, 14.040
103.747, 64.789, 13.879
105.256, 64.782, 13.768
106.787, 64.782, 13.684
108.340, 64.782, 13.611
109.916, 64.787, 13.545
111.515, 64.787, 13.479
113.137, 64.789, 13.432
114.783, 64.786, 13.386
116.452, 64.785, 13.362
118.146, 64.788, 13.342
119.865, 64.800, 13.367
121.608, 64.830, 13.237
123.377, 64.840, 13.092
125.171, 64.853, 12.961
126.992, 64.856, 12.824
128.839, 64.852, 12.723
130.713, 64.850, 12.644
132.615, 64.849, 12.526
134.543, 64.845, 12.458
136.500, 64.848, 12.432
138.486, 64.849, 12.405
140.500, 64.844, 12.381
142.544, 64.838, 12.377
144.617, 64.835, 12.373
146.721, 64.839, 12.385
148.855, 64.847, 12.417
151.020, 64.859, 12.475
153.217, 64.872, 12.538
155.445, 64.897, 12.540
157.706, 64.924, 12.425
160.000, 64.939, 12.401
162.327, 64.973, 12.400
164.688, 64.993, 12.248
167.084, 64.978, 12.128
169.514, 64.976, 12.046
171.980, 64.979, 11.993
174.481, 64.990, 11.970
177.019, 64.998, 11.969
179.594, 65.008, 11.911
182.206, 65.011, 11.882
184.856, 65.024, 11.871
187.545, 65.034, 11.889
190.273, 65.052, 11.891
193.041, 65.067, 11.844
195.849, 65.081, 11.813
198.697, 65.088, 11.814
201.587, 65.102, 11.848
204.520, 65.119, 11.835
207.494, 65.137, 11.831
210.512, 65.152, 11.761
213.574, 65.167, 11.738
216.681, 65.183, 11.698
219.833, 65.194, 11.683
223.030, 65.217, 11.714
226.274, 65.236, 11.706
229.565, 65.238, 11.670
232.905, 65.246, 11.717
236.292, 65.277, 11.699
239.729, 65.314, 11.664
243.216, 65.347, 11.497
246.754, 65.360, 11.415
250.343, 65.375, 11.484
253.984, 65.397, 11.483
257.678, 65.421, 11.426
261.426, 65.451, 11.370
265.229, 65.481, 11.305
269.087, 65.504, 11.166
273.001, 65.517, 11.060
276.972, 65.549, 11.024
281.000, 65.585, 10.964
285.088, 65.617, 10.808
289.234, 65.643, 10.612
293.441, 65.657, 10.387
297.710, 65.662, 10.207
302.040, 65.669, 10.057
306.433, 65.671, 9.939
310.890, 65.687, 9.847
315.412, 65.705, 9.680
320.000, 65.714, 9.575
324.655, 65.725, 9.450
329.377, 65.734, 9.256
334.168, 65.738, 9.062
339.028, 65.737, 8.885
343.959, 65.734, 8.749
348.962, 65.722, 8.617
354.038, 65.712, 8.549
359.188, 65.698, 8.536
364.412, 65.689, 8.599
369.713, 65.701, 8.690
375.090, 65.719, 8.737
380.546, 65.742, 8.731
386.081, 65.758, 8.735
391.697, 65.783, 8.784
397.395, 65.825, 8.762
403.175, 65.872, 8.623
409.039, 65.909, 8.365
414.989, 65.932, 8.058
421.025, 65.949, 7.866
427.149, 65.983, 7.622
433.362, 66.015, 7.185
439.665, 66.018, 6.635
446.060, 65.994, 6.285
452.548, 66.009, 5.878
459.131, 65.970, 5.166
465.809, 65.879, 4.775
472.584, 65.833, 4.497
479.458, 65.746, 4.088
486.432, 65.645, 3.980
493.507, 65.550, 3.985
500.686, 65.438, 4.096
507.968, 65.373, 4.500
515.357, 65.309, 4.690
522.853, 65.245, 4.939
530.458, 65.142, 5.240
538.174, 65.069, 5.924
546.002, 65.020, 6.786
553.943, 65.035, 7.383
562.001, 64.999, 7.867
570.175, 64.986, 8.653
578.469, 64.961, 9.449
586.883, 65.016, 10.650
595.419, 65.112, 11.265
604.080, 65.164, 11.967
612.866, 65.271, 12.766
621.780, 65.403, 13.120
630.824, 65.485, 13.512
640.000, 65.617, 14.180
649.309, 65.784, 14.314
658.753, 65.929, 14.338
668.335, 66.048, 14.278
678.056, 66.213, 14.267
687.919, 66.330, 13.835
697.925, 66.451, 13.781
708.076, 66.604, 13.333
718.376, 66.706, 12.764
728.825, 66.836, 12.366
739.426, 66.952, 11.608
750.181, 67.045, 10.779
761.093, 67.125, 10.131
772.163, 67.236, 9.151
783.394, 67.289, 7.974
794.789, 67.315, 6.971
806.349, 67.361, 5.848
818.078, 67.362, 4.339
829.977, 67.290, 3.179
842.050, 67.197, 2.129
854.297, 67.174, 1.434
866.724, 67.137, -0.094
879.330, 66.911, -1.634
892.120, 66.730, -1.704
905.097, 66.637, -2.315
918.262, 66.486, -3.814
931.618, 66.170, -3.958
945.169, 65.915, -4.485
958.917, 65.606, -3.530
972.864, 65.454, -2.846
987.015, 65.256, -2.211
1001.371, 65.165, -0.911
1015.937, 65.063, -0.820
1030.714, 64.844, 0.147
1045.706, 64.731, 1.796
1060.916, 64.742, 2.852
1076.347, 64.727, 3.795
1092.003, 64.679, 4.022
1107.887, 64.468, 5.415
1124.001, 64.511, 7.357
1140.350, 64.535, 8.343
1156.937, 64.551, 9.948
1173.765, 64.604, 11.236
1190.838, 64.699, 12.972
1208.159, 64.890, 15.060
1225.732, 65.313, 15.547
1243.561, 65.444, 15.105
1261.649, 65.638, 15.457
1280.000, 65.804, 14.908
1298.618, 65.838, 14.836
1317.507, 65.969, 15.341
1336.670, 66.166, 15.123
1356.113, 66.225, 14.924
1375.838, 66.483, 15.116
1395.850, 66.580, 13.508
1416.153, 66.566, 13.100
1436.751, 66.655, 13.288
1457.649, 66.840, 12.668
1478.851, 66.773, 11.402
1500.362, 66.858, 11.273
1522.185, 66.849, 10.454
1544.326, 66.849, 10.009
1566.789, 66.866, 10.317
1589.578, 67.103, 9.420
1612.699, 67.015, 6.461
1636.156, 66.719, 6.047
1659.955, 66.500, 5.817
1684.099, 66.354, 5.952
1708.595, 66.116, 6.945
1733.447, 66.146, 8.083
1758.661, 66.117, 7.544
1784.241, 65.896, 8.039
1810.193, 65.763, 8.536
1836.523, 65.437, 9.699
1863.236, 65.289, 13.257
1890.338, 65.386, 15.798
1917.833, 65.541, 19.770
1945.729, 66.186, 21.449
1974.030, 66.433, 21.700
2002.743, 66.827, 22.516
2031.873, 67.205, 21.969
2061.428, 67.374, 21.877
2091.412, 67.719, 21.758
2121.832, 67.980, 21.268
2152.695, 68.272, 20.656
2184.007, 68.468, 19.456
2215.774, 68.677, 19.323
2248.003, 68.964, 18.366
2280.701, 69.236, 17.135
2313.874, 69.490, 15.801
2347.530, 69.770, 13.554
2381.676, 69.784, 10.335
2416.318, 69.692, 9.359
2451.464, 69.703, 8.298
2487.122, 69.896, 8.124
2523.298, 70.201, 4.919
2560.000, 70.023, 1.970
2597.236, 69.800, -0.485
2635.014, 69.407, -0.570
2673.341, 69.301, 0.511
2712.226, 69.500, 2.162
2751.676, 70.002, 0.883
2791.700, 70.229, -2.140
2832.306, 70.263, -5.485
2873.503, 70.197, -8.604
2915.299, 69.989, -11.296
2957.703, 69.788, -13.790
3000.724, 69.518, -15.929
3044.370, 69.201, -17.979
3088.652, 68.882, -19.665
3133.577, 68.513, -21.227
3179.156, 68.115, -22.763
3225.398, 67.625, -23.876
3272.312, 67.103, -24.622
3319.909, 66.484, -24.683
3368.198, 65.855, -23.697
3417.190, 65.194, -22.055
3466.894, 64.504, -18.009
3517.321, 64.214, -11.244
3568.482, 64.734, -5.987
3620.387, 65.275, -5.508
3673.046, 65.376, -6.259
3726.472, 65.375, -6.362
3780.675, 65.335, -6.698
3835.666, 65.074, -6.234
3891.457, 64.925, -4.105
3948.060, 65.091, -1.630
4005.486, 65.326, -1.208
4063.747, 65.490, -2.515
4122.855, 65.270, -3.724
4182.824, 65.041, -2.838
4243.664, 64.838, -2.354
4305.390, 64.577, -0.875
4368.013, 64.356, 1.378
4431.547, 64.307, 4.353
4496.005, 64.312, 6.686
4561.401, 64.302, 10.486
4627.749, 64.747, 14.654
4695.061, 65.327, 16.555
4763.352, 65.915, 17.014
4832.637, 66.292, 15.494
4902.929, 66.270, 15.161
4974.244, 66.408, 16.957
5046.596, 66.702, 18.555
5120.000, 67.092, 20.619
5194.472, 67.778, 22.536
5270.027, 68.607, 22.373
5346.682, 69.315, 21.031
5424.451, 70.088, 19.424
5503.352, 70.906, 16.052
5583.399, 71.621, 11.056
5664.612, 72.068, 4.652
5747.006, 72.347, -1.413
5830.598, 72.533, -8.782
5915.406, 72.362, -16.880
6001.447, 71.756, -24.160
6088.740, 70.919, -28.775
6177.303, 70.133, -31.181
6267.154, 69.490, -33.002
6358.312, 68.808, -34.521
6450.796, 68.059, -34.605
6544.625, 67.559, -32.582
6639.818, 67.413, -31.850
6736.397, 67.164, -31.892
6834.380, 66.920, -31.628
6933.789, 66.716, -30.787
7034.643, 66.742, -29.494
7136.964, 66.962, -29.814
7240.773, 67.187, -31.329
7346.093, 67.356, -34.070
7452.944, 67.423, -37.721
7561.350, 67.390, -41.899
7671.332, 67.176, -46.549
7782.915, 66.762, -49.920
7896.120, 66.838, -51.098
8010.971, 67.475, -57.586
8127.493, 67.654, -69.770
8245.711, 67.291, -84.848
8365.647, 66.314, -102.450
8487.328, 64.759, -122.195
8610.779, 62.717, -147.497
8736.026, 60.054, 178.915
8863.095, 57.470, 132.066
8992.011, 54.906, 75.877
9122.803, 50.250, 52.957
9255.497, 51.076, 82.761
9390.121, 55.910, 82.358
9526.704, 58.448, 66.477
9665.273, 59.488, 53.301
9805.857, 59.950, 43.530
9948.487, 59.682, 37.030
10093.191, 59.226, 36.516
10240.000, 58.875, 40.679
10388.944, 60.069, 53.850
10540.055, 63.001, 54.149
10693.363, 64.481, 44.063
10848.902, 65.412, 35.292
11006.703, 66.224, 25.588
11166.799, 66.697, 13.310
11329.224, 66.374, -1.560
11494.012, 64.834, -12.904
11661.195, 62.852, -14.906
11830.812, 61.533, -10.751
12002.895, 61.145, -4.930
12177.480, 61.684, -0.861
12354.606, 62.642, -3.168
12534.309, 63.133, -10.142
12716.624, 63.363, -18.050
12901.592, 63.643, -30.124
13089.250, 62.969, -49.966
13279.637, 60.208, -68.649
13472.794, 55.375, -67.436
13668.760, 52.688, -43.240
13867.577, 54.152, -35.698
14069.285, 54.690, -46.257
14273.928, 54.087, -64.126
14481.547, 51.356, -85.895
14692.186, 46.909, -92.635
14905.889, 45.317, -93.926
15122.700, 47.312, -115.944
15342.664, 51.015, -143.449
15565.829, 54.343, -174.561
15792.239, 57.119, 160.417
16021.942, 58.899, 136.756
16254.986, 59.522, 118.302
16491.422, 59.913, 106.737
16731.295, 60.504, 98.945
16974.656, 61.570, 89.736
17221.559, 62.263, 75.358
17472.053, 61.851, 58.823
17726.189, 60.126, 46.581
17984.021, 57.689, 48.498
18245.605, 57.318, 57.976
18510.994, 58.037, 57.644
18780.242, 57.941, 53.927
19053.408, 57.658, 52.971
19330.547, 57.919, 56.345
19611.715, 59.707, 52.847
19896.975, 60.301, 37.710
