* Measurement data measured by REW V5.19
* Source: ASIO MOTU M Series, In 1
* Format: 512k Log Swept Sine, 2 sweeps at -10.0 dBFS  With no timing reference
* Dated: 10 Sep, 2020 4:28:54 PM
* REW Settings:
*  C-weighting compensation: Off
*  Target level: 75.0 dB
* Note: ; 
* Measurement: Sep 10 16:28:54
* Smoothing: None
* Frequency Step: 1/48 octave
* Start Frequency: 10.1 Hz
*
* Freq(Hz), SPL(dB), Phase(degrees)
10.145, 56.226, -56.749
10.293, 56.274, -57.929
10.443, 56.323, -59.116
10.595, 56.386, -59.962
10.749, 56.466, -60.709
10.905, 56.577, -61.411
11.064, 56.715, -62.107
11.225, 56.880, -62.945
11.388, 57.068, -63.918
11.554, 57.259, -65.139
11.722, 57.453, -66.590
11.892, 57.624, -68.259
12.065, 57.770, -70.123
12.241, 57.874, -72.058
12.419, 57.938, -74.029
12.599, 57.959, -75.868
12.782, 57.948, -77.530
12.968, 57.916, -78.882
13.157, 57.887, -79.940
13.348, 57.876, -80.654
13.543, 57.909, -81.204
13.740, 57.994, -81.632
13.939, 58.129, -82.219
14.142, 58.300, -83.014
14.348, 58.485, -84.165
14.557, 58.654, -85.599
14.768, 58.791, -87.288
14.983, 58.876, -89.026
15.201, 58.911, -90.667
15.422, 58.916, -92.067
15.646, 58.913, -93.091
15.874, 58.917, -93.796
16.105, 58.965, -94.236
16.339, 59.067, -94.693
16.577, 59.202, -95.331
16.818, 59.349, -96.274
17.063, 59.461, -97.532
17.311, 59.511, -98.878
17.563, 59.490, -100.072
17.818, 59.406, -100.831
18.077, 59.306, -100.877
18.340, 59.257, -100.263
18.607, 59.306, -99.282
18.877, 59.471, -98.369
19.152, 59.718, -98.021
19.431, 59.966, -98.430
19.713, 60.146, -99.387
20.000, 60.226, -100.502
20.291, 60.212, -101.333
20.586, 60.158, -101.547
20.885, 60.142, -101.120
21.189, 60.233, -100.459
21.497, 60.426, -100.231
21.810, 60.644, -100.849
22.127, 60.786, -102.224
22.449, 60.790, -103.835
22.776, 60.660, -104.936
23.107, 60.493, -104.921
23.443, 60.448, -103.816
23.784, 60.643, -102.561
24.130, 61.042, -102.452
24.481, 61.476, -104.159
24.837, 61.763, -107.369
25.198, 61.802, -111.132
25.565, 61.602, -114.305
25.937, 61.285, -115.986
26.314, 61.048, -116.051
26.697, 61.045, -115.494
27.085, 61.241, -115.708
27.479, 61.461, -117.234
27.879, 61.562, -119.534
28.284, 61.526, -121.744
28.696, 61.431, -123.429
29.113, 61.342, -124.794
29.537, 61.234, -126.209
29.966, 61.029, -127.419
30.402, 60.743, -127.569
30.844, 60.554, -126.204
31.293, 60.646, -124.493
31.748, 60.924, -124.235
32.210, 61.091, -125.636
32.678, 60.983, -127.015
33.154, 60.753, -126.664
33.636, 60.731, -124.905
34.125, 60.974, -124.084
34.621, 61.154, -125.167
35.125, 61.027, -126.462
35.636, 60.751, -125.947
36.154, 60.699, -123.991
36.680, 60.888, -123.031
37.214, 60.989, -123.627
37.755, 60.905, -123.849
38.304, 60.906, -122.859
38.861, 61.156, -122.561
39.427, 61.381, -124.070
40.000, 61.366, -125.819
40.582, 61.308, -126.011
41.172, 61.486, -125.516
41.771, 61.819, -125.978
42.379, 62.093, -127.153
42.995, 62.305, -128.062
43.620, 62.519, -128.660
44.255, 62.736, -129.124
44.898, 62.958, -129.706
45.552, 63.097, -130.961
46.214, 62.965, -132.275
46.886, 62.617, -131.747
47.568, 62.402, -129.215
48.260, 62.421, -126.540
48.962, 62.595, -124.015
49.674, 63.065, -122.349
50.397, 63.655, -123.575
51.130, 63.982, -126.691
51.874, 64.091, -129.273
52.628, 64.226, -131.012
53.394, 64.436, -132.645
54.170, 64.667, -134.564
54.958, 64.798, -136.745
55.758, 64.815, -138.187
56.569, 64.891, -139.183
57.391, 64.909, -140.967
58.226, 64.727, -142.289
59.073, 64.595, -142.568
59.932, 64.565, -143.184
60.804, 64.548, -144.117
61.688, 64.566, -145.481
62.586, 64.496, -147.252
63.496, 64.320, -148.064
64.420, 64.293, -147.605
65.357, 64.434, -148.050
66.307, 64.394, -148.787
67.272, 64.491, -148.495
68.250, 64.593, -150.546
69.243, 64.258, -151.382
70.250, 64.259, -150.086
71.272, 64.373, -150.698
72.309, 64.423, -151.306
73.360, 64.383, -152.756
74.427, 64.136, -152.817
75.510, 64.062, -151.664
76.608, 64.221, -151.091
77.723, 64.250, -153.210
78.853, 63.898, -152.963
80.000, 64.109, -152.410
81.164, 64.162, -153.386
82.344, 64.473, -155.759
83.542, 63.800, -158.210
84.757, 63.980, -153.080
85.990, 64.317, -155.452
87.241, 64.269, -155.412
88.510, 64.179, -157.020
89.797, 63.934, -155.925
91.103, 64.228, -155.908
92.428, 64.043, -158.249
93.773, 64.038, -156.052
95.137, 64.244, -156.649
96.520, 64.288, -156.044
97.924, 64.218, -157.326
99.349, 63.915, -154.094
100.794, 64.399, -155.310
102.260, 64.262, -155.879
103.747, 64.327, -158.413
105.256, 64.240, -158.322
106.787, 64.124, -158.496
108.340, 64.270, -159.550
109.916, 64.005, -158.382
111.515, 64.271, -159.299
113.137, 64.213, -159.325
114.783, 64.308, -159.911
116.452, 64.253, -159.539
118.146, 64.304, -159.397
119.865, 64.103, -160.301
121.608, 64.403, -159.244
123.377, 64.300, -160.271
125.171, 64.363, -160.522
126.992, 64.269, -159.927
128.839, 64.271, -160.047
130.713, 64.266, -161.129
132.615, 64.088, -160.962
134.543, 64.481, -162.112
136.500, 64.532, -160.030
138.486, 64.399, -160.690
140.500, 64.443, -160.101
142.544, 64.268, -160.390
144.617, 64.258, -160.905
146.721, 64.453, -161.619
148.855, 64.517, -161.017
151.020, 64.384, -160.815
153.217, 64.369, -161.751
155.445, 64.165, -162.381
157.706, 64.231, -162.400
160.000, 64.494, -162.212
162.327, 64.353, -161.018
164.688, 64.435, -160.678
167.084, 64.576, -161.790
169.514, 64.442, -161.124
171.980, 64.250, -161.086
174.481, 64.448, -161.003
177.019, 64.474, -161.908
179.594, 64.627, -162.599
182.206, 64.483, -162.556
184.856, 64.681, -163.255
187.545, 64.439, -163.078
190.273, 64.480, -163.045
193.041, 64.573, -163.178
195.849, 64.613, -163.834
198.697, 64.574, -164.909
201.587, 64.614, -163.789
204.520, 64.587, -163.226
207.494, 64.646, -163.289
210.512, 64.659, -163.815
213.574, 64.699, -163.617
216.681, 64.689, -163.637
219.833, 64.814, -163.997
223.030, 64.851, -162.720
226.274, 64.881, -162.437
229.565, 64.764, -163.339
232.905, 64.638, -163.719
236.292, 64.756, -164.632
239.729, 64.803, -164.251
243.216, 65.012, -164.634
246.754, 65.161, -164.559
250.343, 65.009, -162.714
253.984, 64.820, -163.847
257.678, 64.935, -163.931
261.426, 64.901, -163.396
265.229, 64.857, -164.608
269.087, 65.160, -163.612
273.001, 64.957, -163.574
276.972, 65.048, -165.131
281.000, 65.054, -162.773
285.088, 65.082, -165.418
289.234, 65.113, -163.489
293.441, 65.242, -164.106
297.710, 65.070, -163.660
302.040, 65.227, -164.511
306.433, 65.355, -164.532
310.890, 65.378, -163.952
315.412, 65.542, -165.657
320.000, 65.233, -164.858
324.655, 65.299, -165.125
329.377, 65.249, -166.359
334.168, 65.225, -167.101
339.028, 65.531, -166.597
343.959, 65.524, -167.225
348.962, 65.166, -167.185
354.038, 65.241, -166.021
359.188, 65.301, -166.462
364.412, 65.308, -166.659
369.713, 65.356, -166.699
375.090, 65.322, -167.162
380.546, 65.478, -166.088
386.081, 65.402, -165.988
391.697, 65.454, -166.186
397.395, 65.416, -167.064
403.175, 65.425, -166.674
409.039, 65.554, -167.143
414.989, 65.337, -167.475
421.025, 65.510, -168.772
427.149, 65.451, -167.260
433.362, 65.202, -167.733
439.665, 65.400, -168.127
446.060, 65.319, -167.329
452.548, 65.271, -167.481
459.131, 65.127, -167.341
465.809, 65.314, -167.470
472.584, 65.315, -166.924
479.458, 65.143, -166.484
486.432, 65.062, -166.261
493.507, 65.167, -165.710
500.686, 65.147, -165.353
507.968, 65.071, -163.689
515.357, 65.194, -163.351
522.853, 65.190, -162.353
530.458, 65.274, -161.448
538.174, 65.365, -160.545
546.002, 65.610, -162.094
553.943, 65.541, -160.043
562.001, 65.783, -160.553
570.175, 65.905, -159.888
578.469, 65.983, -159.558
586.883, 66.106, -159.579
595.419, 66.326, -159.150
604.080, 66.512, -158.320
612.866, 66.707, -158.406
621.780, 66.877, -158.898
630.824, 67.011, -159.188
640.000, 67.156, -159.906
649.309, 67.386, -160.378
658.753, 67.503, -160.955
668.335, 67.614, -161.437
678.056, 67.777, -161.876
687.919, 67.976, -163.606
697.925, 68.008, -164.258
708.076, 68.090, -164.330
718.376, 68.245, -165.843
728.825, 68.238, -167.228
739.426, 68.209, -167.187
750.181, 68.521, -168.262
761.093, 68.382, -168.945
772.163, 68.384, -170.902
783.394, 68.458, -171.508
794.789, 68.362, -172.428
806.349, 68.480, -172.635
818.078, 68.413, -174.572
829.977, 68.406, -174.761
842.050, 68.385, -175.852
854.297, 68.420, -176.042
866.724, 68.529, -177.980
879.330, 68.417, -178.352
892.120, 68.549, -179.395
905.097, 68.558, 178.591
918.262, 68.470, 177.849
931.618, 68.290, 175.215
945.169, 67.919, 174.844
958.917, 67.747, 173.746
972.864, 67.432, 174.149
987.015, 67.177, 175.249
1001.371, 66.828, 174.705
1015.937, 66.768, 176.523
1030.714, 66.779, 178.989
1045.706, 67.056, -179.849
1060.916, 67.468, -179.010
1076.347, 67.554, 179.907
1092.003, 67.794, 178.503
1107.887, 67.748, 177.665
1124.001, 67.802, 176.834
1140.350, 67.687, 175.187
1156.937, 67.443, 174.978
1173.765, 67.607, 173.563
1190.838, 67.701, 173.734
1208.159, 67.644, 173.026
1225.732, 67.482, 171.374
1243.561, 67.397, 170.890
1261.649, 67.295, 169.895
1280.000, 66.996, 170.722
1298.618, 66.864, 167.647
1317.507, 66.757, 169.001
1336.670, 66.615, 169.601
1356.113, 66.391, 168.214
1375.838, 66.131, 169.460
1395.850, 65.992, 168.478
1416.153, 66.021, 169.659
1436.751, 65.788, 170.309
1457.649, 65.712, 170.390
1478.851, 65.720, 170.875
1500.362, 65.681, 170.051
1522.185, 65.578, 169.771
1544.326, 65.437, 170.827
1566.789, 65.517, 171.690
1589.578, 65.078, 172.630
1612.699, 64.698, 173.217
1636.156, 64.921, 176.774
1659.955, 65.131, 179.051
1684.099, 65.433, 178.374
1708.595, 65.421, 177.195
1733.447, 65.736, 177.474
1758.661, 65.555, 175.507
1784.241, 65.362, 177.450
1810.193, 65.178, 176.362
1836.523, 65.324, 177.377
1863.236, 65.472, 178.072
1890.338, 65.216, 178.715
1917.833, 65.216, -179.686
1945.729, 65.604, -178.849
1974.030, 65.462, -178.717
2002.743, 65.345, -177.902
2031.873, 65.632, -176.385
2061.428, 65.287, -175.609
2091.412, 65.602, -176.195
2121.832, 65.631, -174.949
2152.695, 65.957, -177.320
2184.007, 65.886, -179.103
2215.774, 65.867, -176.181
2248.003, 65.690, -178.280
2280.701, 65.899, -173.305
2313.874, 65.868, -171.779
2347.530, 66.180, -171.141
2381.676, 66.222, -172.075
2416.318, 66.301, -174.092
2451.464, 66.740, -174.355
2487.122, 66.747, -174.064
2523.298, 66.871, -172.447
2560.000, 67.208, -171.042
2597.236, 67.537, -170.748
2635.014, 67.910, -173.537
2673.341, 68.218, -173.499
2712.226, 68.503, -176.305
2751.676, 68.818, -176.448
2791.700, 68.618, -178.651
2832.306, 68.925, 178.445
2873.503, 68.773, 176.372
2915.299, 68.975, 174.476
2957.703, 68.803, 174.172
3000.724, 69.024, 173.084
3044.370, 69.208, 170.709
3088.652, 68.996, 168.064
3133.577, 68.898, 166.564
3179.156, 68.686, 164.013
3225.398, 68.582, 162.637
3272.312, 68.578, 161.973
3319.909, 68.284, 161.344
3368.198, 68.127, 158.936
3417.190, 67.909, 157.501
3466.894, 67.694, 156.203
3517.321, 67.383, 154.646
3568.482, 66.973, 153.527
3620.387, 66.483, 154.391
3673.046, 66.257, 154.128
3726.472, 65.642, 155.650
3780.675, 65.718, 157.502
3835.666, 65.411, 160.168
3891.457, 65.430, 158.957
3948.060, 65.336, 159.809
4005.486, 65.102, 160.535
4063.747, 64.648, 161.467
4122.855, 64.163, 163.825
4182.824, 64.137, 167.905
4243.664, 64.305, 171.383
4305.390, 64.536, 177.113
4368.013, 65.292, -179.677
4431.547, 65.950, 179.789
4496.005, 66.731, 179.411
4561.401, 66.926, 178.410
4627.749, 67.311, 175.306
4695.061, 67.409, 175.155
4763.352, 67.580, 173.852
4832.637, 67.567, 173.805
4902.929, 67.908, 174.027
4974.244, 68.224, 174.792
5046.596, 68.808, 174.824
5120.000, 69.858, 174.474
5194.472, 70.644, 169.537
5270.027, 71.213, 162.859
5346.682, 71.402, 154.306
5424.451, 71.297, 148.221
5503.352, 70.926, 143.015
5583.399, 70.669, 138.130
5664.612, 70.559, 132.964
5747.006, 70.019, 126.135
5830.598, 69.313, 122.140
5915.406, 68.427, 117.288
6001.447, 67.768, 114.852
6088.740, 66.750, 114.471
6177.303, 65.953, 112.285
6267.154, 65.284, 114.557
6358.312, 64.989, 113.981
6450.796, 64.029, 112.558
6544.625, 63.426, 113.128
6639.818, 62.810, 112.858
6736.397, 62.077, 113.204
6834.380, 60.929, 114.174
6933.789, 59.921, 120.478
7034.643, 59.618, 130.122
7136.964, 59.751, 135.946
7240.773, 60.268, 141.826
7346.093, 60.917, 147.384
7452.944, 62.286, 149.667
7561.350, 63.527, 145.451
7671.332, 64.457, 141.532
7782.915, 65.767, 135.465
7896.120, 67.436, 120.323
8010.971, 68.343, 88.980
8127.493, 65.932, 43.658
8245.711, 57.403, -0.284
8365.647, 46.256, -117.539
8487.328, 50.884, 147.395
8610.779, 48.666, 153.086
8736.026, 50.322, -175.444
8863.095, 55.604, -162.632
8992.011, 60.065, -176.068
9122.803, 61.833, 159.654
9255.497, 61.612, 138.863
9390.121, 60.808, 116.057
9526.704, 58.581, 92.405
9665.273, 54.924, 65.693
9805.857, 50.702, 20.508
9948.487, 51.733, -41.037
10093.191, 56.112, -80.479
10240.000, 59.396, -103.656
10388.944, 61.525, -125.022
10540.055, 62.411, -141.808
10693.363, 62.498, -152.445
10848.902, 63.013, -155.257
11006.703, 64.415, -162.319
11166.799, 65.138, -177.985
11329.224, 63.917, 170.684
11494.012, 63.206, 174.465
11661.195, 64.925, 173.691
11830.812, 66.059, 158.026
12002.895, 65.566, 140.411
12177.480, 63.633, 130.836
12354.606, 63.057, 130.884
12534.309, 62.815, 123.446
12716.624, 62.126, 119.292
12901.592, 62.668, 111.316
13089.250, 62.141, 98.850
13279.637, 61.821, 83.745
13472.794, 61.207, 70.702
13668.760, 60.941, 51.958
13867.577, 60.174, 36.409
14069.285, 60.442, 20.578
14273.928, 62.327, -3.004
14481.547, 63.041, -37.558
14692.186, 61.654, -64.688
14905.889, 60.605, -79.971
15122.700, 60.091, -91.230
15342.664, 59.673, -98.185
15565.829, 58.902, -102.726
15792.239, 59.531, -96.485
16021.942, 61.818, -98.553
16254.986, 63.730, -111.701
16491.422, 64.754, -127.382
16731.295, 64.404, -147.103
16974.656, 62.560, -160.882
17221.559, 60.796, -161.931
17472.053, 60.223, -156.193
17726.189, 61.520, -161.123
17984.021, 61.223, -176.321
18245.605, 59.034, 178.386
18510.994, 57.772, -178.029
18780.242, 56.843, -175.544
19053.408, 57.128, -167.651
19330.547, 58.384, -170.396
19611.715, 58.409, 179.109
19896.975, 57.334, 171.705
