* Measurement data measured by REW V5.19
* Source: ASIO MOTU M Series, In 1
* Format: 512k Log Swept Sine, 2 sweeps at -10.0 dBFS  With no timing reference
* Dated: 10 Sep, 2020 4:24:15 PM
* REW Settings:
*  C-weighting compensation: Off
*  Target level: 75.0 dB
* Note: ; 
* Measurement: Sep 10 16:24:15
* Smoothing: None
* Frequency Step: 1/48 octave
* Start Frequency: 10.1 Hz
*
* Freq(Hz), SPL(dB), Phase(degrees)
10.145, 62.679, -104.512
10.293, 62.728, -105.594
10.443, 62.778, -106.779
10.595, 62.830, -107.826
10.749, 62.884, -108.873
10.905, 62.940, -109.926
11.064, 63.000, -110.991
11.225, 63.061, -112.092
11.388, 63.123, -113.227
11.554, 63.182, -114.416
11.722, 63.237, -115.656
11.892, 63.282, -116.942
12.065, 63.314, -118.266
12.241, 63.330, -119.584
12.419, 63.329, -120.881
12.599, 63.310, -122.089
12.782, 63.278, -123.185
12.968, 63.238, -124.111
13.157, 63.202, -124.871
13.348, 63.177, -125.444
13.543, 63.176, -125.915
13.740, 63.204, -126.308
13.939, 63.261, -126.770
14.142, 63.340, -127.340
14.348, 63.430, -128.113
14.557, 63.510, -129.068
14.768, 63.570, -130.194
14.983, 63.592, -131.370
15.201, 63.577, -132.479
15.422, 63.524, -133.413
15.646, 63.454, -134.019
15.874, 63.390, -134.295
16.105, 63.352, -134.235
16.339, 63.368, -134.021
16.577, 63.437, -133.840
16.818, 63.552, -133.853
17.063, 63.684, -134.221
17.311, 63.801, -134.910
17.563, 63.882, -135.831
17.818, 63.914, -136.840
18.077, 63.898, -137.730
18.340, 63.856, -138.386
18.607, 63.813, -138.794
18.877, 63.792, -139.021
19.152, 63.806, -139.236
19.431, 63.847, -139.648
19.713, 63.889, -140.354
20.000, 63.904, -141.332
20.291, 63.872, -142.460
20.586, 63.787, -143.544
20.885, 63.663, -144.392
21.189, 63.534, -144.899
21.497, 63.437, -145.132
21.810, 63.396, -145.319
22.127, 63.402, -145.732
22.449, 63.420, -146.528
22.776, 63.404, -147.642
23.107, 63.327, -148.799
23.443, 63.196, -149.620
23.784, 63.063, -149.825
24.130, 63.006, -149.467
24.481, 63.074, -149.010
24.837, 63.246, -149.059
25.198, 63.435, -149.923
25.565, 63.545, -151.399
25.937, 63.531, -152.913
26.314, 63.422, -153.849
26.697, 63.308, -153.931
27.085, 63.284, -153.494
27.479, 63.358, -153.273
27.879, 63.442, -153.730
28.284, 63.427, -154.632
28.696, 63.278, -155.275
29.113, 63.065, -154.984
29.537, 62.928, -153.740
29.966, 62.953, -152.351
30.402, 63.089, -151.704
30.844, 63.207, -151.983
31.293, 63.223, -152.618
31.748, 63.162, -152.927
32.210, 63.114, -152.655
32.678, 63.157, -152.109
33.154, 63.299, -151.789
33.636, 63.491, -152.046
34.125, 63.654, -152.958
34.621, 63.701, -154.181
35.125, 63.594, -154.755
35.636, 63.472, -153.686
36.154, 63.615, -151.545
36.680, 64.030, -150.769
37.214, 64.321, -152.448
37.755, 64.177, -154.322
38.304, 63.809, -153.381
38.861, 63.845, -150.387
39.427, 64.248, -149.907
40.000, 64.345, -152.522
40.582, 63.947, -154.019
41.172, 63.659, -152.578
41.771, 63.808, -152.064
42.379, 63.813, -154.401
42.995, 63.451, -155.621
43.620, 63.355, -154.669
44.255, 63.544, -155.864
44.898, 63.310, -158.176
45.552, 62.950, -156.008
46.214, 63.485, -152.721
46.886, 64.173, -155.442
47.568, 63.978, -159.292
48.260, 63.518, -157.352
48.962, 63.883, -153.861
49.674, 64.355, -155.187
50.397, 64.196, -157.033
51.130, 63.967, -155.193
51.874, 64.300, -153.229
52.628, 64.683, -155.027
53.394, 64.561, -157.619
54.170, 64.322, -157.169
54.958, 64.532, -156.181
55.758, 64.774, -157.515
56.569, 64.793, -158.628
57.391, 64.853, -159.037
58.226, 64.886, -159.438
59.073, 64.992, -159.152
59.932, 65.203, -160.149
60.804, 65.149, -161.806
61.688, 65.048, -162.096
62.586, 65.037, -162.545
63.496, 64.996, -162.478
64.420, 65.206, -162.360
65.357, 65.418, -164.251
66.307, 65.345, -166.323
67.272, 65.128, -166.775
68.250, 65.088, -165.418
69.243, 65.345, -165.130
70.250, 65.426, -166.503
71.272, 65.329, -167.139
72.309, 65.256, -167.008
73.360, 65.334, -166.861
74.427, 65.378, -167.857
75.510, 65.407, -168.368
76.608, 65.417, -170.174
77.723, 65.260, -170.485
78.853, 65.326, -171.674
80.000, 65.093, -172.096
81.164, 65.150, -172.176
82.344, 65.012, -171.926
83.542, 65.238, -171.815
84.757, 65.150, -173.001
85.990, 65.089, -172.597
87.241, 65.174, -172.398
88.510, 65.151, -173.633
89.797, 65.037, -173.196
91.103, 65.110, -173.910
92.428, 64.943, -174.587
93.773, 64.907, -174.550
95.137, 64.856, -174.844
96.520, 64.924, -175.510
97.924, 64.800, -176.452
99.349, 64.827, -175.767
100.794, 64.886, -176.640
102.260, 64.915, -176.856
103.747, 64.564, -177.278
105.256, 64.713, -175.572
106.787, 64.688, -177.476
108.340, 64.434, -176.800
109.916, 64.692, -177.961
111.515, 64.526, -177.500
113.137, 64.558, -177.594
114.783, 64.617, -178.195
116.452, 64.386, -177.183
118.146, 64.516, -177.653
119.865, 64.332, -178.559
121.608, 64.556, -178.742
123.377, 64.399, -178.071
125.171, 64.317, -178.233
126.992, 64.249, -179.137
128.839, 64.283, -179.099
130.713, 64.226, -179.773
132.615, 64.223, -177.659
134.543, 64.122, -177.189
136.500, 63.873, -179.896
138.486, 64.124, -177.706
140.500, 64.131, -176.665
142.544, 64.042, -179.525
144.617, 64.369, 179.948
146.721, 64.511, -178.685
148.855, 64.320, -177.500
151.020, 63.984, -177.407
153.217, 64.014, -179.554
155.445, 64.026, 178.841
157.706, 63.968, -179.606
160.000, 64.068, 179.216
162.327, 64.262, 178.856
164.688, 64.141, -179.571
167.084, 63.803, -179.158
169.514, 63.690, 179.410
171.980, 63.910, 178.525
174.481, 63.909, 179.049
177.019, 63.839, 178.989
179.594, 63.975, 179.228
182.206, 63.600, 178.833
184.856, 63.769, 178.381
187.545, 63.629, 178.718
190.273, 63.583, 178.618
193.041, 63.506, 179.189
195.849, 63.326, 178.271
198.697, 63.616, 178.210
201.587, 63.449, 179.614
204.520, 63.518, 178.101
207.494, 63.485, -179.575
210.512, 63.283, 178.583
213.574, 63.395, 179.510
216.681, 63.303, 178.399
219.833, 63.390, -179.479
223.030, 63.159, 178.899
226.274, 63.213, -179.686
229.565, 63.261, 179.340
232.905, 63.144, 179.610
236.292, 63.163, -179.579
239.729, 63.114, 178.870
243.216, 63.034, -179.794
246.754, 63.181, 179.156
250.343, 63.060, 179.838
253.984, 62.947, -179.968
257.678, 62.903, -179.151
261.426, 63.049, 179.275
265.229, 62.724, -179.894
269.087, 62.694, -178.942
273.001, 62.741, -179.144
276.972, 62.764, -178.842
281.000, 62.676, -179.598
285.088, 62.487, -179.597
289.234, 62.468, -178.746
293.441, 62.481, -178.303
297.710, 62.419, -178.823
302.040, 62.394, -178.037
306.433, 62.244, -177.717
310.890, 62.208, -176.901
315.412, 62.195, -175.958
320.000, 62.172, -175.437
324.655, 62.099, -174.980
329.377, 62.089, -174.660
334.168, 62.023, -174.163
339.028, 61.942, -173.698
343.959, 62.037, -174.413
348.962, 61.835, -172.515
354.038, 61.972, -173.063
359.188, 61.954, -171.175
364.412, 61.818, -171.559
369.713, 61.773, -169.732
375.090, 61.858, -169.380
380.546, 61.878, -168.218
386.081, 61.781, -167.888
391.697, 61.728, -166.760
397.395, 61.901, -165.953
403.175, 61.900, -165.750
409.039, 62.020, -163.898
414.989, 62.151, -163.856
421.025, 62.122, -162.975
427.149, 62.265, -163.035
433.362, 62.241, -161.372
439.665, 62.379, -162.502
446.060, 62.513, -161.920
452.548, 62.544, -160.999
459.131, 62.595, -161.038
465.809, 62.804, -160.277
472.584, 62.740, -159.784
479.458, 62.835, -159.706
486.432, 62.917, -159.433
493.507, 62.937, -159.403
500.686, 63.014, -159.044
507.968, 63.083, -158.595
515.357, 63.148, -158.557
522.853, 63.248, -158.445
530.458, 63.302, -158.358
538.174, 63.343, -158.148
546.002, 63.398, -157.833
553.943, 63.500, -157.576
562.001, 63.554, -157.452
570.175, 63.555, -157.397
578.469, 63.656, -157.251
586.883, 63.773, -156.948
595.419, 63.780, -157.002
604.080, 63.886, -156.514
612.866, 63.925, -156.923
621.780, 63.934, -156.716
630.824, 63.950, -156.262
640.000, 64.066, -156.311
649.309, 64.135, -157.351
658.753, 64.037, -157.115
668.335, 64.225, -156.928
678.056, 64.262, -157.160
687.919, 64.293, -157.224
697.925, 64.264, -157.282
708.076, 64.337, -157.728
718.376, 64.313, -156.769
728.825, 64.177, -157.415
739.426, 64.073, -156.589
750.181, 64.094, -156.148
761.093, 64.067, -155.542
772.163, 64.116, -154.575
783.394, 64.107, -153.804
794.789, 64.179, -152.857
806.349, 64.288, -151.920
818.078, 64.447, -151.178
829.977, 64.645, -150.499
842.050, 64.698, -150.154
854.297, 64.827, -149.947
866.724, 64.970, -149.891
879.330, 65.076, -149.548
892.120, 65.218, -149.429
905.097, 65.309, -149.405
918.262, 65.472, -149.286
931.618, 65.584, -149.432
945.169, 65.687, -149.492
958.917, 65.792, -149.498
972.864, 65.863, -149.460
987.015, 66.001, -149.848
1001.371, 66.073, -149.925
1015.937, 66.160, -149.938
1030.714, 66.233, -149.852
1045.706, 66.350, -149.907
1060.916, 66.493, -150.712
1076.347, 66.585, -150.550
1092.003, 66.684, -151.335
1107.887, 66.733, -151.904
1124.001, 66.789, -152.565
1140.350, 66.745, -153.390
1156.937, 66.685, -153.745
1173.765, 66.573, -153.737
1190.838, 66.448, -153.356
1208.159, 66.371, -152.390
1225.732, 66.372, -150.711
1243.561, 66.475, -149.391
1261.649, 66.666, -148.204
1280.000, 66.882, -147.483
1298.618, 67.128, -147.156
1317.507, 67.357, -146.992
1336.670, 67.581, -147.327
1356.113, 67.771, -147.926
1375.838, 67.880, -148.403
1395.850, 67.988, -149.150
1416.153, 68.044, -149.435
1436.751, 68.101, -149.294
1457.649, 68.223, -149.124
1478.851, 68.396, -149.010
1500.362, 68.581, -149.311
1522.185, 68.740, -149.761
1544.326, 68.860, -150.458
1566.789, 68.963, -150.930
1589.578, 69.077, -151.248
1612.699, 69.200, -151.893
1636.156, 69.238, -152.610
1659.955, 69.191, -152.705
1684.099, 69.188, -151.890
1708.595, 69.377, -150.252
1733.447, 69.763, -149.377
1758.661, 70.229, -149.793
1784.241, 70.645, -151.193
1810.193, 70.983, -153.116
1836.523, 71.216, -155.391
1863.236, 71.364, -157.811
1890.338, 71.438, -159.931
1917.833, 71.494, -161.709
1945.729, 71.580, -163.758
1974.030, 71.622, -165.894
2002.743, 71.620, -167.886
2031.873, 71.602, -170.238
2061.428, 71.478, -172.729
2091.412, 71.315, -174.885
2121.832, 71.009, -176.476
2152.695, 70.663, -177.218
2184.007, 70.374, -176.518
2215.774, 70.343, -175.705
2248.003, 70.413, -175.685
2280.701, 70.419, -176.610
2313.874, 70.399, -177.620
2347.530, 70.308, -178.422
2381.676, 70.176, -178.970
2416.318, 70.055, -179.146
2451.464, 70.003, -178.888
2487.122, 69.992, -179.495
2523.298, 69.875, 179.630
2560.000, 69.803, 179.547
2597.236, 69.703, 179.470
2635.014, 69.638, 179.484
2673.341, 69.501, 179.590
2712.226, 69.437, -179.615
2751.676, 69.454, -179.077
2791.700, 69.584, -179.030
2832.306, 69.688, -179.045
2873.503, 69.814, -179.731
2915.299, 69.837, 179.496
2957.703, 69.894, 178.757
3000.724, 69.928, 177.534
3044.370, 69.936, 176.114
3088.652, 69.806, 174.713
3133.577, 69.501, 173.983
3179.156, 69.248, 174.968
3225.398, 69.316, 176.231
3272.312, 69.439, 176.106
3319.909, 69.498, 174.832
3368.198, 69.442, 173.871
3417.190, 69.377, 173.246
3466.894, 69.285, 172.555
3517.321, 69.286, 171.966
3568.482, 69.117, 170.377
3620.387, 68.713, 168.909
3673.046, 68.213, 170.192
3726.472, 68.010, 172.437
3780.675, 67.994, 174.415
3835.666, 68.009, 175.760
3891.457, 68.049, 176.771
3948.060, 68.144, 177.483
4005.486, 68.094, 177.773
4063.747, 68.036, 178.649
4122.855, 67.931, 179.241
4182.824, 67.681, -177.496
4243.664, 67.944, -172.692
4305.390, 68.641, -169.855
4368.013, 69.411, -169.065
4431.547, 70.101, -170.431
4496.005, 70.672, -173.390
4561.401, 70.878, -176.438
4627.749, 71.062, 179.988
4695.061, 70.835, 177.317
4763.352, 70.710, 178.871
4832.637, 71.058, 179.047
4902.929, 71.530, 177.114
4974.244, 71.750, 174.135
5046.596, 71.681, 169.476
5120.000, 71.348, 168.645
5194.472, 71.296, 167.791
5270.027, 71.033, 168.907
5346.682, 71.459, 171.601
5424.451, 72.277, 170.368
5503.352, 72.843, 165.870
5583.399, 72.878, 160.932
5664.612, 72.933, 158.692
5747.006, 73.394, 154.466
5830.598, 73.330, 148.050
5915.406, 73.244, 142.799
6001.447, 72.923, 136.082
6088.740, 72.189, 131.212
6177.303, 71.529, 128.746
6267.154, 71.130, 126.164
6358.312, 70.679, 120.896
6450.796, 69.312, 116.504
6544.625, 68.183, 119.309
6639.818, 67.999, 121.658
6736.397, 67.347, 116.588
6834.380, 65.564, 118.733
6933.789, 65.072, 128.362
7034.643, 65.108, 131.961
7136.964, 64.857, 136.769
7240.773, 65.389, 141.655
7346.093, 65.947, 143.509
7452.944, 66.731, 144.749
7561.350, 67.475, 142.239
7671.332, 68.283, 138.404
7782.915, 68.875, 131.271
7896.120, 69.295, 121.273
8010.971, 68.930, 108.133
8127.493, 67.669, 96.470
8245.711, 65.883, 87.339
8365.647, 63.666, 83.009
8487.328, 61.363, 81.450
8610.779, 58.971, 88.043
8736.026, 57.663, 94.540
8863.095, 55.713, 100.712
8992.011, 54.045, 119.920
9122.803, 55.269, 140.272
9255.497, 57.954, 144.378
9390.121, 59.574, 132.859
9526.704, 58.921, 117.808
9665.273, 57.271, 112.796
9805.857, 56.275, 107.946
9948.487, 54.680, 96.310
10093.191, 51.635, 81.379
10240.000, 47.870, 54.248
10388.944, 47.645, -8.452
10540.055, 53.446, -51.686
10693.363, 58.482, -77.922
10848.902, 61.811, -100.365
11006.703, 63.574, -118.579
11166.799, 64.845, -133.002
11329.224, 65.864, -146.231
11494.012, 66.421, -160.297
11661.195, 66.397, -171.162
11830.812, 66.588, -179.747
12002.895, 67.120, 170.992
12177.480, 67.757, 156.980
12354.606, 67.980, 137.767
12534.309, 67.346, 113.407
12716.624, 64.947, 86.416
12901.592, 61.491, 69.626
13089.250, 59.544, 52.292
13279.637, 57.662, 20.376
13472.794, 56.131, -12.531
13668.760, 56.240, -42.546
13867.577, 58.143, -64.111
14069.285, 59.886, -87.592
14273.928, 60.288, -113.264
14481.547, 57.694, -120.172
14692.186, 59.768, -114.573
14905.889, 61.740, -131.635
15122.700, 60.612, -151.760
15342.664, 58.454, -170.679
15565.829, 51.633, 174.474
15792.239, 45.266, -60.662
16021.942, 56.908, -57.989
16254.986, 62.860, -68.815
16491.422, 66.387, -94.293
16731.295, 67.230, -120.427
16974.656, 66.041, -138.289
17221.559, 65.101, -140.847
17472.053, 65.596, -149.508
17726.189, 64.697, -159.530
17984.021, 63.701, -161.725
18245.605, 63.761, -162.861
18510.994, 63.649, -172.169
18780.242, 62.053, -178.825
19053.408, 61.061, -175.396
19330.547, 60.555, -176.595
19611.715, 59.736, -172.614
19896.975, 61.335, -167.409
