* Measurement data measured by REW V5.19
* Source: ASIO MOTU M Series, In 1
* Format: 1M Log Swept Sine, 1 sweep at -10.0 dBFS  With no timing reference
* Dated: 30 Apr, 2021 9:40:31 PM
* REW Settings:
*  C-weighting compensation: Off
*  Target level: 75.0 dB
* Note: ; 
* Measurement: Apr 30 21:40:31
* Smoothing: 1/48 octave
* Frequency Step: 1/48 octave
* Start Frequency: 10.1 Hz
*
* Freq(Hz), SPL(dB), Phase(degrees)
10.145, 62.360, 88.644
10.293, 62.401, 87.916
10.443, 62.445, 86.959
10.595, 62.513, 85.732
10.749, 62.585, 84.478
10.905, 62.646, 83.579
11.064, 62.704, 82.813
11.225, 62.773, 81.911
11.388, 62.849, 80.947
11.554, 62.925, 79.998
11.722, 63.002, 79.049
11.892, 63.076, 78.080
12.065, 63.148, 77.092
12.241, 63.215, 76.068
12.419, 63.277, 75.026
12.599, 63.331, 74.022
12.782, 63.379, 73.046
12.968, 63.423, 72.091
13.157, 63.465, 71.179
13.348, 63.506, 70.329
13.543, 63.550, 69.513
13.740, 63.599, 68.728
13.939, 63.654, 67.948
14.142, 63.714, 67.162
14.348, 63.778, 66.348
14.557, 63.843, 65.496
14.768, 63.907, 64.601
14.983, 63.966, 63.676
15.201, 64.018, 62.736
15.422, 64.062, 61.792
15.646, 64.101, 60.873
15.874, 64.134, 59.985
16.105, 64.166, 59.135
16.339, 64.198, 58.317
16.577, 64.232, 57.519
16.818, 64.268, 56.727
17.063, 64.305, 55.926
17.311, 64.340, 55.113
17.563, 64.373, 54.293
17.818, 64.401, 53.474
18.077, 64.425, 52.675
18.340, 64.445, 51.907
18.607, 64.465, 51.172
18.877, 64.487, 50.466
19.152, 64.511, 49.775
19.431, 64.538, 49.083
19.713, 64.565, 48.377
20.000, 64.591, 47.656
20.291, 64.613, 46.930
20.586, 64.630, 46.214
20.885, 64.644, 45.526
21.189, 64.656, 44.876
21.497, 64.670, 44.260
21.810, 64.688, 43.660
22.127, 64.710, 43.055
22.449, 64.734, 42.429
22.776, 64.755, 41.781
23.107, 64.771, 41.126
23.443, 64.782, 40.489
23.784, 64.790, 39.885
24.130, 64.799, 39.312
24.481, 64.810, 38.751
24.837, 64.822, 38.184
25.198, 64.830, 37.612
25.565, 64.832, 37.059
25.937, 64.832, 36.552
26.314, 64.833, 36.097
26.697, 64.842, 35.663
27.085, 64.855, 35.205
27.479, 64.867, 34.701
27.879, 64.870, 34.177
28.284, 64.863, 33.686
28.696, 64.853, 33.265
29.113, 64.846, 32.907
29.537, 64.845, 32.577
29.966, 64.848, 32.258
30.402, 64.854, 31.963
30.844, 64.869, 31.695
31.293, 64.896, 31.408
31.748, 64.932, 31.039
32.210, 64.964, 30.571
32.678, 64.981, 30.070
33.154, 64.986, 29.624
33.636, 64.991, 29.266
34.125, 65.004, 28.950
34.621, 65.022, 28.619
35.125, 65.039, 28.266
35.636, 65.051, 27.923
36.154, 65.061, 27.613
36.680, 65.073, 27.324
37.214, 65.086, 27.028
37.755, 65.099, 26.710
38.304, 65.107, 26.383
38.861, 65.113, 26.078
39.427, 65.124, 25.789
40.000, 65.142, 25.463
40.582, 65.161, 25.060
41.172, 65.172, 24.610
41.771, 65.176, 24.170
42.379, 65.178, 23.763
42.995, 65.183, 23.378
43.620, 65.188, 23.004
44.255, 65.193, 22.645
44.898, 65.198, 22.304
45.552, 65.203, 21.938
46.214, 65.192, 21.528
46.886, 65.150, 21.240
47.568, 65.110, 21.281
48.260, 65.125, 21.427
48.962, 65.167, 21.240
49.674, 65.165, 20.854
50.397, 65.140, 20.719
51.130, 65.154, 20.705
51.874, 65.184, 20.475
52.628, 65.190, 20.211
53.394, 65.205, 20.099
54.170, 65.243, 19.920
54.958, 65.272, 19.621
55.758, 65.286, 19.388
56.569, 65.307, 19.229
57.391, 65.332, 19.043
58.226, 65.354, 18.843
59.073, 65.377, 18.630
59.932, 65.396, 18.363
60.804, 65.408, 18.111
61.688, 65.425, 17.866
62.586, 65.440, 17.576
63.496, 65.453, 17.330
64.420, 65.477, 17.073
65.357, 65.496, 16.753
66.307, 65.506, 16.474
67.272, 65.519, 16.260
68.250, 65.545, 16.046
69.243, 65.569, 15.705
70.250, 65.572, 15.347
71.272, 65.564, 15.058
72.309, 65.562, 14.934
73.360, 65.607, 14.724
74.427, 65.630, 14.143
75.510, 65.612, 13.784
76.608, 65.631, 13.550
77.723, 65.650, 13.145
78.853, 65.653, 12.820
80.000, 65.668, 12.526
81.164, 65.673, 12.105
82.344, 65.656, 11.747
83.542, 65.643, 11.443
84.757, 65.634, 11.114
85.990, 65.621, 10.760
87.241, 65.609, 10.442
88.510, 65.587, 10.097
89.797, 65.552, 9.923
91.103, 65.528, 9.850
92.428, 65.511, 9.719
93.773, 65.481, 9.529
95.137, 65.448, 9.318
96.520, 65.396, 9.104
97.924, 65.355, 9.138
99.349, 65.354, 9.084
100.794, 65.347, 9.005
102.260, 65.353, 8.955
103.747, 65.371, 8.855
105.256, 65.364, 8.624
106.787, 65.330, 8.610
108.340, 65.315, 8.722
109.916, 65.292, 8.764
111.515, 65.291, 8.815
113.137, 65.285, 8.662
114.783, 65.285, 8.539
116.452, 65.293, 8.502
118.146, 65.326, 8.578
119.865, 65.361, 8.355
121.608, 65.316, 8.349
123.377, 65.303, 8.399
125.171, 65.287, 8.363
126.992, 65.286, 8.245
128.839, 65.298, 8.156
130.713, 65.311, 8.025
132.615, 65.308, 7.904
134.543, 65.287, 7.770
136.500, 65.271, 7.843
138.486, 65.276, 7.844
140.500, 65.292, 7.838
142.544, 65.289, 7.761
144.617, 65.288, 7.809
146.721, 65.284, 7.648
148.855, 65.249, 7.637
151.020, 65.258, 7.629
153.217, 65.260, 7.643
155.445, 65.249, 7.749
157.706, 65.207, 7.752
160.000, 65.151, 8.059
162.327, 65.204, 8.155
164.688, 65.239, 8.507
167.084, 65.270, 7.942
169.514, 65.209, 7.820
171.980, 65.245, 7.974
174.481, 65.304, 7.784
177.019, 65.323, 7.878
179.594, 65.317, 7.807
182.206, 65.306, 7.811
184.856, 65.324, 7.825
187.545, 65.326, 7.693
190.273, 65.328, 7.634
193.041, 65.349, 7.724
195.849, 65.393, 7.696
198.697, 65.394, 7.547
201.587, 65.408, 7.482
204.520, 65.438, 7.533
207.494, 65.456, 7.447
210.512, 65.473, 7.465
213.574, 65.481, 7.337
216.681, 65.506, 7.105
219.833, 65.516, 7.014
223.030, 65.518, 7.000
226.274, 65.499, 6.819
229.565, 65.494, 6.735
232.905, 65.525, 6.811
236.292, 65.542, 6.511
239.729, 65.561, 6.140
243.216, 65.588, 5.962
246.754, 65.602, 5.959
250.343, 65.562, 5.829
253.984, 65.494, 5.645
257.678, 65.478, 5.689
261.426, 65.457, 5.804
265.229, 65.434, 5.956
269.087, 65.404, 6.157
273.001, 65.378, 6.293
276.972, 65.379, 6.499
281.000, 65.395, 6.656
285.088, 65.413, 6.888
289.234, 65.417, 7.099
293.441, 65.482, 7.017
297.710, 65.524, 6.987
302.040, 65.551, 6.965
306.433, 65.586, 6.652
310.890, 65.566, 7.004
315.412, 65.572, 7.122
320.000, 65.650, 7.159
324.655, 65.668, 7.356
329.377, 65.655, 7.113
334.168, 65.693, 6.947
339.028, 65.703, 6.730
343.959, 65.737, 6.559
348.962, 65.751, 6.365
354.038, 65.749, 6.288
359.188, 65.748, 6.055
364.412, 65.758, 5.824
369.713, 65.742, 5.813
375.090, 65.748, 5.787
380.546, 65.749, 5.625
386.081, 65.723, 5.423
391.697, 65.674, 5.422
397.395, 65.667, 5.702
403.175, 65.681, 5.755
409.039, 65.689, 5.846
414.989, 65.694, 5.841
421.025, 65.686, 5.742
427.149, 65.676, 5.875
433.362, 65.682, 5.895
439.665, 65.657, 6.090
446.060, 65.674, 6.354
452.548, 65.694, 6.347
459.131, 65.683, 6.500
465.809, 65.678, 6.914
472.584, 65.732, 7.166
479.458, 65.775, 7.312
486.432, 65.828, 7.448
493.507, 65.881, 7.559
500.686, 65.914, 7.690
507.968, 65.969, 7.680
515.357, 66.000, 7.657
522.853, 66.081, 7.576
530.458, 66.132, 7.327
538.174, 66.139, 7.294
546.002, 66.221, 7.355
553.943, 66.320, 6.828
562.001, 66.323, 6.111
570.175, 66.267, 5.780
578.469, 66.208, 5.988
586.883, 66.277, 6.447
595.419, 66.348, 6.073
604.080, 66.346, 5.824
612.866, 66.370, 5.863
621.780, 66.414, 5.674
630.824, 66.434, 5.548
640.000, 66.463, 5.499
649.309, 66.507, 5.202
658.753, 66.504, 4.898
668.335, 66.501, 4.780
678.056, 66.553, 4.713
687.919, 66.550, 4.350
697.925, 66.579, 4.293
708.076, 66.604, 4.174
718.376, 66.572, 4.151
728.825, 66.651, 4.499
739.426, 66.742, 4.300
750.181, 66.803, 4.044
761.093, 66.891, 3.827
772.163, 66.998, 3.214
783.394, 67.033, 2.209
794.789, 67.021, 1.836
806.349, 67.093, 1.239
818.078, 67.105, 0.112
829.977, 67.029, -0.596
842.050, 67.021, -0.899
854.297, 67.057, -1.543
866.724, 67.008, -2.456
879.330, 66.950, -3.096
892.120, 66.878, -3.693
905.097, 66.818, -4.190
918.262, 66.720, -4.719
931.618, 66.675, -4.588
945.169, 66.564, -5.564
958.917, 66.522, -4.502
972.864, 66.625, -5.409
987.015, 66.456, -6.265
1001.371, 66.419, -5.763
1015.937, 66.502, -6.508
1030.714, 66.311, -8.035
1045.706, 66.046, -7.261
1060.916, 66.185, -6.726
1076.347, 66.152, -8.131
1092.003, 66.002, -8.763
1107.887, 65.778, -8.556
1124.001, 65.780, -8.422
1140.350, 65.681, -8.542
1156.937, 65.579, -9.138
1173.765, 65.365, -8.604
1190.838, 65.333, -8.475
1208.159, 65.213, -7.428
1225.732, 65.271, -7.539
1243.561, 65.183, -7.735
1261.649, 65.108, -7.512
1280.000, 65.179, -7.542
1298.618, 65.004, -8.874
1317.507, 64.851, -7.956
1336.670, 64.779, -9.165
1356.113, 64.359, -8.456
1375.838, 64.300, -7.317
1395.850, 64.085, -6.670
1416.153, 63.889, -4.942
1436.751, 63.968, -2.685
1457.649, 64.191, -2.002
1478.851, 64.224, -1.454
1500.362, 64.493, -2.088
1522.185, 64.347, -3.840
1544.326, 64.078, -3.456
1566.789, 64.117, -2.760
1589.578, 64.038, -3.379
1612.699, 63.853, -3.456
1636.156, 63.622, -3.257
1659.955, 63.409, -2.133
1684.099, 63.266, -1.471
1708.595, 63.017, 0.512
1733.447, 63.057, 1.666
1758.661, 62.831, 2.828
1784.241, 62.733, 5.277
1810.193, 62.734, 7.180
1836.523, 62.767, 9.485
1863.236, 62.885, 11.649
1890.338, 63.109, 12.727
1917.833, 63.114, 14.006
1945.729, 63.245, 15.489
1974.030, 63.387, 17.758
2002.743, 63.836, 18.847
2031.873, 64.009, 17.933
2061.428, 64.020, 18.370
2091.412, 64.115, 18.956
2121.832, 64.112, 20.213
2152.695, 64.342, 21.202
2184.007, 64.326, 22.188
2215.774, 64.609, 24.343
2248.003, 64.836, 25.215
2280.701, 65.222, 26.656
2313.874, 65.624, 26.606
2347.530, 65.965, 25.580
2381.676, 66.006, 24.544
2416.318, 66.161, 25.823
2451.464, 66.529, 25.588
2487.122, 66.799, 25.222
2523.298, 66.989, 23.717
2560.000, 67.139, 23.473
2597.236, 67.239, 22.489
2635.014, 67.373, 22.456
2673.341, 67.506, 22.069
2712.226, 67.677, 22.157
2751.676, 67.876, 21.754
2791.700, 68.129, 21.714
2832.306, 68.455, 20.656
2873.503, 68.673, 18.816
2915.299, 68.788, 17.105
2957.703, 68.854, 15.315
3000.724, 68.820, 14.529
3044.370, 68.860, 13.718
3088.652, 69.024, 13.133
3133.577, 69.046, 12.234
3179.156, 69.199, 11.201
3225.398, 69.317, 10.359
3272.312, 69.410, 8.890
3319.909, 69.575, 7.057
3368.198, 69.500, 4.813
3417.190, 69.367, 3.791
3466.894, 69.339, 2.891
3517.321, 69.301, 2.167
3568.482, 69.269, 1.494
3620.387, 69.329, 0.985
3673.046, 69.414, -0.383
3726.472, 69.393, -1.715
3780.675, 69.371, -2.930
3835.666, 69.332, -4.257
3891.457, 69.316, -5.112
3948.060, 69.376, -6.682
4005.486, 69.331, -8.846
4063.747, 69.121, -11.279
4122.855, 68.774, -12.483
4182.824, 68.590, -12.755
4243.664, 68.427, -13.928
4305.390, 68.101, -14.935
4368.013, 67.725, -14.921
4431.547, 67.382, -14.016
4496.005, 67.083, -11.894
4561.401, 67.116, -8.886
4627.749, 67.398, -7.456
4695.061, 67.671, -7.032
4763.352, 67.998, -7.911
4832.637, 68.067, -9.870
4902.929, 67.971, -10.473
4974.244, 68.070, -10.114
5046.596, 68.330, -11.127
5120.000, 68.367, -13.169
5194.472, 68.383, -13.923
5270.027, 68.513, -15.437
5346.682, 68.570, -17.230
5424.451, 68.625, -19.479
5503.352, 68.591, -22.104
5583.399, 68.475, -25.048
5664.612, 68.164, -27.820
5747.006, 67.806, -29.334
5830.598, 67.537, -30.708
5915.406, 67.199, -32.178
6001.447, 66.853, -33.146
6088.740, 66.478, -34.264
6177.303, 66.008, -34.554
6267.154, 65.612, -33.744
6358.312, 65.395, -33.048
6450.796, 65.165, -32.964
6544.625, 64.858, -32.698
6639.818, 64.605, -31.592
6736.397, 64.464, -30.613
6834.380, 64.374, -29.922
6933.789, 64.273, -29.433
7034.643, 64.195, -28.598
7136.964, 64.263, -27.712
7240.773, 64.428, -27.753
7346.093, 64.624, -28.664
7452.944, 64.779, -30.585
7561.350, 64.907, -33.064
7671.332, 65.010, -36.960
7782.915, 64.878, -42.067
7896.120, 64.464, -47.633
8010.971, 63.753, -52.811
8127.493, 62.775, -56.891
8245.711, 61.569, -59.186
8365.647, 60.314, -59.143
8487.328, 59.137, -57.519
8610.779, 58.041, -54.604
8736.026, 57.047, -50.125
8863.095, 56.416, -45.108
8992.011, 55.809, -41.131
9122.803, 55.267, -36.104
9255.497, 54.994, -31.368
9390.121, 54.779, -28.433
9526.704, 54.349, -26.968
9665.273, 53.485, -25.103
9805.857, 52.227, -19.801
9948.487, 50.981, -8.581
10093.191, 50.625, 7.722
10240.000, 51.519, 22.808
10388.944, 52.957, 34.540
10540.055, 55.074, 42.948
10693.363, 57.443, 44.583
10848.902, 59.443, 39.462
11006.703, 60.740, 29.844
11166.799, 61.151, 18.768
11329.224, 60.839, 9.914
11494.012, 60.193, 4.286
11661.195, 59.496, 1.922
11830.812, 59.049, 1.381
12002.895, 58.829, 0.646
12177.480, 58.756, -0.906
12354.606, 58.704, -4.539
12534.309, 58.403, -10.142
12716.624, 57.733, -17.024
12901.592, 56.548, -24.346
13089.250, 54.784, -30.931
13279.637, 52.313, -35.891
13472.794, 48.973, -36.944
13668.760, 44.359, -30.631
13867.577, 37.798, 17.916
14069.285, 42.196, 98.447
14273.928, 48.476, 115.262
14481.547, 52.621, 111.607
14692.186, 55.375, 102.319
14905.889, 56.845, 91.824
15122.700, 57.380, 83.838
15342.664, 57.481, 80.485
15565.829, 57.704, 81.401
15792.239, 58.450, 84.246
16021.942, 59.804, 86.005
16254.986, 61.539, 83.719
16491.422, 63.138, 75.503
16731.295, 63.947, 62.560
16974.656, 63.782, 49.933
17221.559, 63.040, 41.299
17472.053, 62.244, 36.313
17726.189, 61.523, 33.304
17984.021, 60.958, 31.524
18245.605, 60.513, 29.923
18510.994, 60.088, 28.268
18780.242, 59.695, 27.005
19053.408, 59.393, 25.923
19330.547, 59.195, 24.560
19611.715, 59.078, 22.576
19896.975, 58.993, 20.077
