* Measurement data measured by REW V5.19
* Source: ASIO MOTU M Series, In 1
* Format: 512k Log Swept Sine, 2 sweeps at -10.0 dBFS  With no timing reference
* Dated: 10 Sep, 2020 5:06:40 PM
* REW Settings:
*  C-weighting compensation: Off
*  Target level: 75.0 dB
* Note: ; 
* Measurement: Sep 10 17:06:40
* Smoothing: None
* Frequency Step: 1/48 octave
* Start Frequency: 10.1 Hz
*
* Freq(Hz), SPL(dB), Phase(degrees)
10.145, 61.873, -106.459
10.293, 61.926, -107.039
10.443, 61.981, -107.714
10.595, 62.064, -108.364
10.749, 62.158, -109.094
10.905, 62.257, -109.961
11.064, 62.357, -110.947
11.225, 62.444, -112.056
11.388, 62.520, -113.274
11.554, 62.572, -114.529
11.722, 62.601, -115.812
11.892, 62.608, -117.017
12.065, 62.593, -118.139
12.241, 62.570, -119.093
12.419, 62.540, -119.891
12.599, 62.522, -120.523
12.782, 62.517, -121.039
12.968, 62.537, -121.500
13.157, 62.577, -121.984
13.348, 62.637, -122.556
13.543, 62.700, -123.259
13.740, 62.762, -124.107
13.939, 62.807, -125.050
14.142, 62.832, -126.044
14.348, 62.831, -127.008
14.557, 62.816, -127.872
14.768, 62.788, -128.603
14.983, 62.763, -129.191
15.201, 62.746, -129.683
15.422, 62.743, -130.118
15.646, 62.747, -130.569
15.874, 62.752, -131.027
16.105, 62.752, -131.486
16.339, 62.743, -131.851
16.577, 62.739, -132.068
16.818, 62.744, -132.110
17.063, 62.789, -132.023
17.311, 62.879, -131.990
17.563, 63.006, -132.149
17.818, 63.152, -132.635
18.077, 63.277, -133.454
18.340, 63.359, -134.425
18.607, 63.395, -135.333
18.877, 63.403, -135.981
19.152, 63.423, -136.265
19.431, 63.505, -136.385
19.713, 63.651, -136.739
20.000, 63.822, -137.645
20.291, 63.948, -139.185
20.586, 63.956, -141.101
20.885, 63.805, -142.801
21.189, 63.523, -143.507
21.497, 63.234, -142.595
21.810, 63.134, -140.262
22.127, 63.345, -137.794
22.449, 63.791, -136.680
22.776, 64.269, -137.522
23.107, 64.591, -139.879
23.443, 64.666, -142.746
23.784, 64.516, -145.049
24.130, 64.258, -146.057
24.481, 64.057, -145.794
24.837, 64.016, -145.107
25.198, 64.089, -144.956
25.565, 64.149, -145.585
25.937, 64.110, -146.477
26.314, 63.990, -146.944
26.697, 63.888, -146.741
27.085, 63.881, -146.297
27.479, 63.952, -146.235
27.879, 64.021, -146.701
28.284, 64.043, -147.352
28.696, 64.048, -147.893
29.113, 64.076, -148.439
29.537, 64.111, -149.306
29.966, 64.088, -150.450
30.402, 63.981, -151.384
30.844, 63.847, -151.658
31.293, 63.777, -151.414
31.748, 63.788, -151.187
32.210, 63.821, -151.174
32.678, 63.858, -151.107
33.154, 63.949, -150.959
33.636, 64.102, -151.272
34.125, 64.211, -152.342
34.621, 64.181, -153.517
35.125, 64.076, -153.818
35.636, 64.072, -153.368
36.154, 64.206, -153.462
36.680, 64.290, -154.639
37.214, 64.177, -155.848
37.755, 63.988, -155.797
38.304, 63.950, -154.782
38.861, 64.081, -154.385
39.427, 64.186, -154.983
40.000, 64.180, -155.661
40.582, 64.162, -155.895
41.172, 64.183, -156.200
41.771, 64.163, -156.743
42.379, 64.083, -156.846
42.995, 64.072, -156.349
43.620, 64.166, -156.212
44.255, 64.216, -156.737
44.898, 64.165, -156.994
45.552, 64.148, -156.547
46.214, 64.237, -156.235
46.886, 64.325, -156.513
47.568, 64.362, -156.891
48.260, 64.398, -157.271
48.962, 64.406, -157.877
49.674, 64.353, -158.324
50.397, 64.316, -158.317
51.130, 64.345, -158.373
51.874, 64.367, -158.779
52.628, 64.344, -159.031
53.394, 64.363, -158.908
54.170, 64.453, -159.142
54.958, 64.470, -159.905
55.758, 64.391, -160.024
56.569, 64.431, -159.438
57.391, 64.571, -159.764
58.226, 64.566, -160.632
59.073, 64.505, -160.639
59.932, 64.530, -160.552
60.804, 64.523, -160.598
61.688, 64.563, -160.269
62.586, 64.651, -160.574
63.496, 64.637, -161.042
64.420, 64.646, -161.115
65.357, 64.701, -161.636
66.307, 64.721, -162.653
67.272, 64.627, -163.976
68.250, 64.365, -163.946
69.243, 64.416, -161.710
70.250, 64.791, -161.982
71.272, 64.740, -162.768
72.309, 64.918, -161.710
73.360, 64.981, -163.585
74.427, 64.733, -163.216
75.510, 64.684, -163.363
76.608, 64.564, -162.119
77.723, 64.930, -163.440
78.853, 64.545, -165.726
80.000, 64.531, -162.686
81.164, 64.950, -162.973
82.344, 65.013, -164.094
83.542, 64.919, -164.755
84.757, 64.713, -164.244
85.990, 64.746, -163.542
87.241, 64.866, -164.318
88.510, 64.876, -165.787
89.797, 64.930, -166.058
91.103, 64.925, -166.982
92.428, 64.921, -165.316
93.773, 65.041, -165.929
95.137, 64.962, -165.174
96.520, 64.925, -165.959
97.924, 65.050, -165.344
99.349, 65.061, -167.145
100.794, 65.019, -166.512
102.260, 65.158, -165.656
103.747, 65.211, -166.890
105.256, 65.014, -166.802
106.787, 64.869, -167.313
108.340, 64.852, -166.025
109.916, 64.938, -166.762
111.515, 65.029, -166.256
113.137, 64.992, -166.913
114.783, 64.995, -166.222
116.452, 64.895, -167.365
118.146, 64.909, -167.006
119.865, 64.910, -167.241
121.608, 64.952, -167.340
123.377, 65.128, -167.323
125.171, 64.997, -167.065
126.992, 64.970, -167.754
128.839, 65.013, -168.212
130.713, 65.088, -168.207
132.615, 65.117, -166.502
134.543, 65.041, -167.460
136.500, 65.046, -166.630
138.486, 64.958, -167.398
140.500, 64.931, -166.843
142.544, 65.277, -167.444
144.617, 65.128, -167.444
146.721, 65.100, -167.496
148.855, 65.093, -167.944
151.020, 65.227, -168.294
153.217, 65.254, -167.949
155.445, 65.275, -167.756
157.706, 65.300, -168.608
160.000, 65.247, -168.699
162.327, 65.307, -168.645
164.688, 65.233, -167.988
167.084, 65.274, -168.488
169.514, 65.328, -167.699
171.980, 65.434, -167.691
174.481, 65.405, -168.153
177.019, 65.233, -167.888
179.594, 65.296, -168.657
182.206, 65.336, -169.007
184.856, 65.400, -169.143
187.545, 65.390, -168.925
190.273, 65.395, -168.366
193.041, 65.345, -169.316
195.849, 65.391, -169.778
198.697, 65.508, -168.751
201.587, 65.510, -168.948
204.520, 65.528, -169.199
207.494, 65.584, -169.746
210.512, 65.648, -169.674
213.574, 65.560, -169.657
216.681, 65.586, -169.316
219.833, 65.587, -169.720
223.030, 65.627, -169.813
226.274, 65.578, -170.784
229.565, 65.596, -170.872
232.905, 65.688, -170.247
236.292, 65.568, -170.167
239.729, 65.777, -171.564
243.216, 65.472, -171.044
246.754, 65.713, -170.838
250.343, 65.812, -170.661
253.984, 65.559, -171.155
257.678, 65.595, -171.307
261.426, 65.671, -170.600
265.229, 65.625, -171.945
269.087, 65.652, -172.383
273.001, 65.589, -172.029
276.972, 65.609, -172.041
281.000, 65.527, -172.019
285.088, 65.569, -171.697
289.234, 65.574, -171.845
293.441, 65.498, -171.683
297.710, 65.521, -171.388
302.040, 65.530, -171.497
306.433, 65.520, -171.958
310.890, 65.499, -171.986
315.412, 65.580, -171.106
320.000, 65.500, -170.826
324.655, 65.447, -170.466
329.377, 65.510, -170.725
334.168, 65.507, -169.683
339.028, 65.522, -169.641
343.959, 65.457, -169.028
348.962, 65.476, -168.737
354.038, 65.443, -169.245
359.188, 65.593, -168.970
364.412, 65.600, -168.972
369.713, 65.653, -168.426
375.090, 65.682, -167.739
380.546, 65.800, -168.336
386.081, 65.825, -168.550
391.697, 65.971, -167.819
397.395, 66.000, -167.121
403.175, 65.880, -166.624
409.039, 66.011, -165.841
414.989, 66.174, -168.934
421.025, 66.106, -165.926
427.149, 66.473, -164.699
433.362, 66.301, -165.132
439.665, 66.252, -167.099
446.060, 66.601, -168.405
452.548, 66.623, -167.915
459.131, 66.727, -167.008
465.809, 66.929, -166.787
472.584, 67.029, -168.142
479.458, 66.973, -167.944
486.432, 67.099, -167.783
493.507, 67.247, -168.172
500.686, 67.234, -168.608
507.968, 67.360, -169.191
515.357, 67.366, -169.914
522.853, 67.333, -169.755
530.458, 67.489, -171.274
538.174, 67.532, -170.699
546.002, 67.695, -172.510
553.943, 67.730, -172.644
562.001, 67.602, -172.307
570.175, 67.649, -172.569
578.469, 67.724, -174.730
586.883, 67.839, -173.224
595.419, 67.851, -175.609
604.080, 67.544, -175.057
612.866, 67.736, -176.122
621.780, 67.699, -176.018
630.824, 67.701, -177.071
640.000, 67.588, -178.130
649.309, 67.696, -177.628
658.753, 67.595, -176.756
668.335, 67.547, -175.093
678.056, 67.709, -176.891
687.919, 67.688, -176.194
697.925, 67.872, -175.871
708.076, 67.951, -175.143
718.376, 68.022, -174.974
728.825, 68.189, -175.720
739.426, 68.475, -175.578
750.181, 68.608, -177.013
761.093, 68.778, -178.137
772.163, 68.831, 179.937
783.394, 69.021, 179.668
794.789, 68.966, 179.049
806.349, 69.096, 176.835
818.078, 69.060, 176.448
829.977, 69.156, 173.651
842.050, 69.119, 172.345
854.297, 68.996, 170.680
866.724, 68.943, 169.556
879.330, 68.709, 167.849
892.120, 68.728, 166.595
905.097, 68.744, 164.932
918.262, 68.516, 163.942
931.618, 68.246, 162.842
945.169, 68.111, 162.995
958.917, 68.014, 161.697
972.864, 67.802, 160.384
987.015, 67.558, 160.553
1001.371, 67.462, 160.417
1015.937, 67.244, 160.561
1030.714, 67.083, 160.154
1045.706, 66.927, 160.267
1060.916, 66.556, 161.958
1076.347, 66.595, 164.213
1092.003, 66.927, 164.493
1107.887, 66.981, 164.082
1124.001, 67.268, 163.299
1140.350, 67.195, 161.308
1156.937, 67.081, 160.159
1173.765, 67.027, 159.069
1190.838, 66.974, 156.788
1208.159, 66.749, 156.211
1225.732, 66.514, 155.317
1243.561, 66.302, 154.497
1261.649, 66.108, 155.122
1280.000, 65.940, 155.203
1298.618, 65.547, 152.701
1317.507, 65.174, 154.088
1336.670, 65.070, 154.637
1356.113, 64.863, 155.647
1375.838, 64.753, 156.953
1395.850, 64.933, 156.780
1416.153, 64.734, 155.709
1436.751, 64.517, 155.893
1457.649, 64.180, 155.785
1478.851, 64.014, 156.056
1500.362, 63.804, 156.340
1522.185, 63.519, 158.437
1544.326, 63.211, 159.901
1566.789, 63.165, 161.242
1589.578, 62.939, 164.211
1612.699, 63.067, 166.658
1636.156, 63.162, 167.411
1659.955, 63.293, 168.799
1684.099, 63.371, 170.478
1708.595, 63.386, 170.037
1733.447, 63.707, 171.630
1758.661, 63.462, 171.866
1784.241, 63.881, 172.712
1810.193, 63.797, 172.451
1836.523, 64.176, 174.461
1863.236, 64.293, 173.043
1890.338, 64.264, 171.157
1917.833, 64.274, 170.406
1945.729, 64.229, 168.602
1974.030, 63.820, 167.793
2002.743, 63.582, 170.602
2031.873, 63.398, 173.993
2061.428, 63.846, 175.014
2091.412, 64.294, 175.746
2121.832, 64.698, 174.392
2152.695, 64.685, 173.473
2184.007, 64.529, 172.046
2215.774, 64.640, 170.897
2248.003, 64.602, 171.327
2280.701, 64.397, 170.758
2313.874, 64.622, 171.865
2347.530, 64.737, 171.173
2381.676, 64.699, 168.012
2416.318, 64.337, 165.272
2451.464, 63.976, 164.392
2487.122, 62.996, 165.735
2523.298, 62.868, 173.877
2560.000, 63.529, 176.855
2597.236, 64.063, 176.778
2635.014, 64.573, 174.854
2673.341, 64.826, 174.464
2712.226, 64.907, 172.467
2751.676, 64.922, 169.718
2791.700, 64.990, 167.935
2832.306, 65.010, 165.279
2873.503, 65.043, 159.933
2915.299, 64.274, 153.476
2957.703, 62.347, 146.563
3000.724, 60.281, 162.664
3044.370, 61.489, 173.674
3088.652, 62.278, 173.626
3133.577, 62.578, 170.907
3179.156, 62.187, 167.769
3225.398, 61.010, 167.386
3272.312, 59.650, 179.507
3319.909, 60.968, -168.992
3368.198, 61.846, -166.783
3417.190, 63.109, -163.835
3466.894, 64.726, -167.759
3517.321, 64.770, -175.119
3568.482, 64.653, -176.866
3620.387, 64.731, -179.946
3673.046, 64.385, 176.584
3726.472, 64.164, 176.332
3780.675, 64.451, 175.377
3835.666, 64.082, 170.293
3891.457, 63.403, 167.135
3948.060, 61.726, 166.605
4005.486, 61.469, 178.404
4063.747, 61.817, 179.947
4122.855, 61.376, -179.142
4182.824, 60.917, -173.956
4243.664, 61.012, -168.198
4305.390, 61.159, -161.576
4368.013, 61.833, -155.767
4431.547, 62.520, -152.062
4496.005, 63.465, -148.059
4561.401, 64.887, -147.285
4627.749, 65.819, -150.205
4695.061, 66.255, -152.552
4763.352, 66.773, -152.884
4832.637, 67.479, -154.436
4902.929, 68.019, -156.927
4974.244, 68.493, -158.793
5046.596, 69.128, -161.402
5120.000, 69.644, -165.009
5194.472, 70.140, -167.671
5270.027, 70.861, -170.619
5346.682, 71.612, -177.325
5424.451, 71.980, 174.568
5503.352, 72.137, 165.704
5583.399, 72.025, 155.833
5664.612, 71.123, 147.683
5747.006, 70.169, 142.521
5830.598, 69.351, 138.278
5915.406, 68.244, 134.928
6001.447, 67.158, 134.032
6088.740, 66.236, 135.317
6177.303, 65.625, 138.213
6267.154, 65.335, 139.136
6358.312, 65.169, 140.596
6450.796, 64.864, 140.100
6544.625, 64.374, 140.511
6639.818, 63.886, 141.931
6736.397, 63.714, 144.547
6834.380, 63.724, 145.989
6933.789, 63.636, 146.463
7034.643, 63.476, 146.390
7136.964, 63.341, 148.490
7240.773, 63.650, 149.495
7346.093, 63.592, 148.291
7452.944, 63.617, 150.290
7561.350, 64.198, 149.796
7671.332, 64.725, 147.604
7782.915, 65.319, 141.755
7896.120, 64.925, 133.059
8010.971, 64.612, 130.835
8127.493, 64.716, 122.618
8245.711, 63.750, 114.081
8365.647, 62.992, 109.703
8487.328, 62.073, 98.970
8610.779, 60.013, 90.547
8736.026, 58.075, 83.683
8863.095, 54.415, 75.365
8992.011, 49.628, 83.587
9122.803, 47.527, 101.762
9255.497, 44.227, 114.168
9390.121, 37.539, 118.766
9526.704, 38.051, -93.092
9665.273, 47.891, -96.338
9805.857, 52.790, -100.882
9948.487, 56.275, -108.354
10093.191, 58.666, -117.265
10240.000, 60.156, -126.385
10388.944, 60.997, -133.529
10540.055, 61.984, -137.616
10693.363, 63.150, -142.247
10848.902, 64.470, -148.633
11006.703, 65.531, -162.300
11166.799, 65.409, -176.627
11329.224, 64.441, 173.028
11494.012, 63.406, 166.255
11661.195, 62.153, 162.278
11830.812, 61.060, 162.238
12002.895, 60.470, 163.124
12177.480, 60.051, 163.315
12354.606, 59.529, 161.698
12534.309, 58.729, 159.009
12716.624, 57.306, 160.144
12901.592, 55.925, 166.222
13089.250, 55.198, 178.472
13279.637, 57.019, -169.941
13472.794, 58.577, -174.089
13668.760, 59.136, 177.120
13867.577, 58.561, 164.065
14069.285, 56.303, 154.089
14273.928, 51.559, 154.566
14481.547, 49.885, -166.688
14692.186, 52.707, -148.439
14905.889, 53.773, -150.395
15122.700, 53.613, -145.999
15342.664, 54.117, -133.043
15565.829, 55.395, -123.248
15792.239, 57.642, -115.369
16021.942, 60.234, -112.601
16254.986, 63.387, -117.192
16491.422, 66.334, -132.911
16731.295, 67.557, -160.204
16974.656, 65.874, 174.117
17221.559, 62.861, 162.534
17472.053, 60.511, 166.413
17726.189, 59.601, 167.443
17984.021, 57.693, 166.948
18245.605, 55.972, -172.798
18510.994, 58.687, -160.368
18780.242, 60.542, -170.184
19053.408, 60.706, 178.922
19330.547, 59.941, 169.852
19611.715, 58.486, 165.350
19896.975, 57.375, 165.373
