* Measurement data measured by REW V5.19
* Source: ASIO MOTU M Series, In 1
* Format: 512k Log Swept Sine, 2 sweeps at -10.0 dBFS  With no timing reference
* Dated: 10 Sep, 2020 4:37:03 PM
* REW Settings:
*  C-weighting compensation: Off
*  Target level: 75.0 dB
* Note: ; 
* Measurement: Sep 10 16:37:03
* Smoothing: None
* Frequency Step: 1/48 octave
* Start Frequency: 10.1 Hz
*
* Freq(Hz), SPL(dB), Phase(degrees)
10.145, 60.788, -98.692
10.293, 60.791, -99.752
10.443, 60.794, -100.813
10.595, 60.802, -101.572
10.749, 60.822, -102.214
10.905, 60.865, -102.753
11.064, 60.931, -103.223
11.225, 61.026, -103.730
11.388, 61.145, -104.275
11.554, 61.280, -104.973
11.722, 61.429, -105.814
11.892, 61.572, -106.829
12.065, 61.707, -108.004
12.241, 61.817, -109.276
12.419, 61.902, -110.621
12.599, 61.957, -111.932
12.782, 61.984, -113.178
12.968, 61.988, -114.271
13.157, 61.978, -115.202
13.348, 61.961, -115.934
13.543, 61.948, -116.519
13.740, 61.943, -116.964
13.939, 61.949, -117.360
14.142, 61.959, -117.720
14.348, 61.970, -118.089
14.557, 61.972, -118.426
14.768, 61.963, -118.709
14.983, 61.944, -118.849
15.201, 61.929, -118.823
15.422, 61.927, -118.601
15.646, 61.963, -118.274
15.874, 62.039, -117.975
16.105, 62.159, -117.843
16.339, 62.301, -118.078
16.577, 62.438, -118.701
16.818, 62.543, -119.706
17.063, 62.587, -120.946
17.311, 62.563, -122.173
17.563, 62.482, -123.189
17.818, 62.365, -123.794
18.077, 62.263, -123.894
18.340, 62.224, -123.664
18.607, 62.268, -123.391
18.877, 62.391, -123.401
19.152, 62.554, -123.965
19.431, 62.698, -125.091
19.713, 62.785, -126.548
20.000, 62.804, -128.024
20.291, 62.774, -129.223
20.586, 62.738, -129.980
20.885, 62.750, -130.366
21.189, 62.840, -130.710
21.497, 62.991, -131.411
21.810, 63.145, -132.658
22.127, 63.241, -134.333
22.449, 63.242, -136.083
22.776, 63.154, -137.474
23.107, 63.025, -138.189
23.443, 62.927, -138.217
23.784, 62.911, -137.888
24.130, 62.976, -137.661
24.481, 63.070, -137.792
24.837, 63.145, -138.181
25.198, 63.189, -138.542
25.565, 63.241, -138.710
25.937, 63.346, -138.871
26.314, 63.502, -139.470
26.697, 63.644, -140.824
27.085, 63.676, -142.776
27.479, 63.542, -144.671
27.879, 63.280, -145.657
28.284, 63.027, -145.242
28.696, 62.950, -143.838
29.113, 63.103, -142.672
29.537, 63.362, -142.710
29.966, 63.553, -143.823
30.402, 63.603, -145.196
30.844, 63.553, -146.048
31.293, 63.508, -146.212
31.748, 63.524, -146.102
32.210, 63.575, -146.113
32.678, 63.611, -146.203
33.154, 63.638, -146.163
33.636, 63.682, -146.051
34.125, 63.733, -146.094
34.621, 63.751, -146.219
35.125, 63.748, -146.067
35.636, 63.800, -145.648
36.154, 63.942, -145.617
36.680, 64.079, -146.475
37.214, 64.089, -147.833
37.755, 63.973, -148.691
38.304, 63.872, -148.555
38.861, 63.925, -148.105
39.427, 64.088, -148.402
40.000, 64.200, -149.629
40.582, 64.171, -150.900
41.172, 64.081, -151.371
41.771, 64.073, -151.248
42.379, 64.148, -151.499
42.995, 64.155, -152.275
43.620, 64.052, -152.600
44.255, 63.986, -152.068
44.898, 64.036, -151.623
45.552, 64.068, -151.778
46.214, 64.026, -151.626
46.886, 64.082, -150.944
47.568, 64.261, -151.223
48.260, 64.283, -152.645
48.962, 64.096, -153.011
49.674, 64.088, -151.774
50.397, 64.343, -151.795
51.130, 64.414, -153.434
51.874, 64.267, -153.829
52.628, 64.320, -152.948
53.394, 64.525, -153.345
54.170, 64.562, -154.433
54.958, 64.524, -154.670
55.758, 64.569, -154.504
56.569, 64.676, -154.623
57.391, 64.772, -155.275
58.226, 64.765, -156.004
59.073, 64.737, -155.975
59.932, 64.829, -155.853
60.804, 64.928, -156.606
61.688, 64.873, -157.417
62.586, 64.820, -157.015
63.496, 65.016, -156.935
64.420, 65.131, -158.985
65.357, 64.904, -160.599
66.307, 64.713, -160.296
67.272, 64.693, -159.846
68.250, 64.755, -159.581
69.243, 64.830, -159.812
70.250, 64.896, -159.707
71.272, 65.062, -160.214
72.309, 65.070, -161.534
73.360, 64.944, -161.931
74.427, 65.000, -161.673
75.510, 65.025, -163.308
76.608, 64.819, -163.255
77.723, 64.845, -163.293
78.853, 64.775, -161.763
80.000, 65.211, -162.271
81.164, 64.972, -163.728
82.344, 65.003, -162.624
83.542, 65.018, -162.987
84.757, 64.928, -163.332
85.990, 65.005, -161.916
87.241, 65.109, -163.654
88.510, 65.032, -162.269
89.797, 65.212, -163.896
91.103, 64.818, -163.432
92.428, 65.096, -162.000
93.773, 65.022, -164.123
95.137, 65.034, -164.545
96.520, 64.746, -164.321
97.924, 65.042, -164.595
99.349, 64.791, -164.186
100.794, 64.868, -163.647
102.260, 65.064, -164.384
103.747, 64.902, -164.198
105.256, 64.949, -167.157
106.787, 64.903, -164.037
108.340, 64.968, -166.508
109.916, 65.011, -165.499
111.515, 64.964, -166.097
113.137, 64.968, -165.677
114.783, 64.936, -166.200
116.452, 65.015, -164.842
118.146, 65.004, -165.568
119.865, 65.053, -164.918
121.608, 65.002, -165.012
123.377, 65.157, -165.868
125.171, 65.041, -165.851
126.992, 65.078, -165.959
128.839, 65.027, -166.509
130.713, 65.084, -166.245
132.615, 65.152, -165.599
134.543, 65.033, -166.313
136.500, 65.125, -166.580
138.486, 65.011, -167.488
140.500, 65.174, -165.444
142.544, 65.138, -166.345
144.617, 65.194, -166.761
146.721, 65.261, -167.174
148.855, 65.218, -166.233
151.020, 65.203, -166.819
153.217, 65.211, -166.827
155.445, 65.228, -166.530
157.706, 65.215, -166.701
160.000, 65.226, -167.158
162.327, 65.280, -166.883
164.688, 65.267, -166.767
167.084, 65.335, -166.521
169.514, 65.272, -166.494
171.980, 65.342, -167.203
174.481, 65.259, -166.822
177.019, 65.464, -166.242
179.594, 65.476, -166.589
182.206, 65.366, -166.889
184.856, 65.428, -167.355
187.545, 65.399, -167.553
190.273, 65.502, -167.165
193.041, 65.558, -167.432
195.849, 65.532, -166.886
198.697, 65.489, -166.889
201.587, 65.478, -166.759
204.520, 65.529, -166.805
207.494, 65.548, -166.441
210.512, 65.593, -167.382
213.574, 65.663, -167.045
216.681, 65.741, -166.497
219.833, 65.711, -167.051
223.030, 65.710, -167.524
226.274, 65.746, -167.341
229.565, 65.722, -167.650
232.905, 65.674, -167.981
236.292, 65.790, -167.523
239.729, 65.834, -167.721
243.216, 65.798, -166.922
246.754, 65.758, -167.521
250.343, 65.816, -168.312
253.984, 65.877, -167.730
257.678, 65.768, -167.929
261.426, 65.968, -167.364
265.229, 66.019, -168.313
269.087, 65.886, -168.088
273.001, 66.066, -167.633
276.972, 66.045, -168.240
281.000, 66.132, -168.236
285.088, 66.184, -167.879
289.234, 66.067, -168.170
293.441, 66.051, -168.041
297.710, 66.077, -168.186
302.040, 66.245, -168.559
306.433, 66.212, -168.403
310.890, 66.313, -168.842
315.412, 66.273, -168.854
320.000, 66.357, -169.512
324.655, 66.349, -169.367
329.377, 66.350, -169.509
334.168, 66.415, -170.109
339.028, 66.398, -170.163
343.959, 66.426, -170.494
348.962, 66.416, -170.574
354.038, 66.448, -170.874
359.188, 66.451, -171.111
364.412, 66.432, -171.280
369.713, 66.403, -171.368
375.090, 66.483, -171.213
380.546, 66.450, -171.769
386.081, 66.331, -171.825
391.697, 66.335, -171.750
397.395, 66.322, -171.722
403.175, 66.315, -171.509
409.039, 66.303, -171.641
414.989, 66.241, -171.243
421.025, 66.300, -171.062
427.149, 66.281, -170.338
433.362, 66.280, -170.116
439.665, 66.277, -169.856
446.060, 66.325, -169.734
452.548, 66.279, -170.720
459.131, 66.585, -169.477
465.809, 66.692, -167.481
472.584, 66.890, -170.277
479.458, 66.544, -171.959
486.432, 67.195, -169.715
493.507, 66.619, -166.970
500.686, 67.170, -169.203
507.968, 66.925, -170.316
515.357, 67.057, -169.515
522.853, 67.173, -169.441
530.458, 67.309, -169.956
538.174, 67.232, -169.964
546.002, 67.340, -170.747
553.943, 67.417, -170.913
562.001, 67.387, -170.741
570.175, 67.448, -170.828
578.469, 67.498, -170.633
586.883, 67.512, -171.032
595.419, 67.497, -171.770
604.080, 67.669, -171.365
612.866, 67.787, -171.779
621.780, 67.920, -172.669
630.824, 67.923, -172.406
640.000, 68.152, -173.011
649.309, 68.186, -174.107
658.753, 68.522, -175.602
668.335, 68.543, -176.130
678.056, 68.331, -175.943
687.919, 68.486, -177.003
697.925, 68.525, -177.998
708.076, 68.446, -179.230
718.376, 68.373, 179.964
728.825, 68.459, 179.589
739.426, 68.383, 179.385
750.181, 68.518, 177.707
761.093, 68.419, 176.787
772.163, 68.430, 176.041
783.394, 68.330, 174.589
794.789, 68.197, 174.107
806.349, 68.044, 172.773
818.078, 68.043, 173.235
829.977, 67.882, 172.947
842.050, 67.882, 172.863
854.297, 67.704, 173.301
866.724, 67.726, 173.703
879.330, 67.704, 173.527
892.120, 67.804, 173.751
905.097, 67.889, 173.287
918.262, 67.948, 172.886
931.618, 67.983, 171.329
945.169, 68.011, 171.439
958.917, 68.063, 169.345
972.864, 67.952, 168.740
987.015, 67.934, 168.214
1001.371, 67.828, 166.439
1015.937, 67.699, 166.329
1030.714, 67.777, 165.722
1045.706, 67.693, 164.925
1060.916, 67.574, 163.883
1076.347, 67.397, 162.275
1092.003, 67.315, 162.106
1107.887, 67.149, 161.170
1124.001, 67.081, 160.122
1140.350, 66.729, 158.770
1156.937, 66.365, 159.047
1173.765, 66.295, 158.758
1190.838, 66.185, 159.611
1208.159, 65.965, 159.569
1225.732, 65.725, 159.300
1243.561, 65.399, 160.291
1261.649, 65.227, 160.455
1280.000, 65.205, 161.953
1298.618, 64.894, 161.519
1317.507, 64.825, 163.014
1336.670, 64.739, 164.525
1356.113, 64.409, 165.111
1375.838, 64.527, 166.766
1395.850, 64.482, 168.565
1416.153, 64.597, 168.900
1436.751, 64.683, 170.652
1457.649, 64.757, 169.796
1478.851, 64.884, 171.535
1500.362, 64.964, 169.368
1522.185, 64.876, 170.433
1544.326, 64.745, 169.669
1566.789, 64.761, 170.104
1589.578, 64.511, 171.662
1612.699, 64.503, 171.881
1636.156, 64.483, 172.543
1659.955, 64.527, 173.508
1684.099, 64.703, 172.897
1708.595, 64.631, 173.844
1733.447, 64.640, 173.457
1758.661, 64.357, 173.653
1784.241, 64.459, 175.141
1810.193, 64.358, 176.232
1836.523, 64.567, 177.063
1863.236, 64.398, 177.887
1890.338, 64.532, 178.762
1917.833, 64.619, -179.681
1945.729, 64.900, -179.906
1974.030, 64.843, -178.336
2002.743, 65.273, -177.503
2031.873, 65.583, -176.176
2061.428, 65.941, -177.503
2091.412, 66.271, -178.627
2121.832, 66.410, 178.971
2152.695, 66.391, 177.153
2184.007, 66.403, 176.634
2215.774, 66.597, 174.446
2248.003, 66.393, 173.975
2280.701, 66.392, 172.790
2313.874, 66.536, 172.388
2347.530, 66.425, 171.239
2381.676, 66.339, 170.168
2416.318, 66.267, 169.182
2451.464, 66.217, 168.040
2487.122, 66.054, 167.235
2523.298, 65.857, 166.619
2560.000, 65.684, 166.444
2597.236, 65.590, 166.727
2635.014, 65.542, 167.080
2673.341, 65.601, 167.194
2712.226, 65.642, 166.506
2751.676, 65.643, 165.532
2791.700, 65.551, 164.211
2832.306, 65.442, 163.458
2873.503, 65.289, 162.414
2915.299, 65.125, 161.536
2957.703, 64.911, 160.943
3000.724, 64.727, 160.741
3044.370, 64.556, 160.448
3088.652, 64.331, 160.085
3133.577, 64.109, 159.847
3179.156, 63.856, 159.222
3225.398, 63.592, 159.756
3272.312, 63.290, 160.504
3319.909, 63.143, 161.855
3368.198, 63.134, 162.567
3417.190, 63.240, 162.012
3466.894, 63.093, 160.944
3517.321, 62.793, 159.060
3568.482, 62.477, 157.092
3620.387, 62.047, 154.620
3673.046, 61.578, 151.599
3726.472, 60.662, 147.070
3780.675, 59.140, 141.538
3835.666, 56.418, 132.006
3891.457, 49.477, 114.783
3948.060, 46.513, -53.421
4005.486, 57.300, -81.748
4063.747, 61.310, -98.098
4122.855, 63.196, -107.239
4182.824, 64.890, -111.763
4243.664, 66.417, -118.845
4305.390, 67.620, -126.037
4368.013, 68.194, -133.317
4431.547, 68.750, -138.456
4496.005, 69.187, -143.328
4561.401, 69.538, -148.087
4627.749, 69.851, -153.621
4695.061, 70.012, -158.158
4763.352, 69.858, -162.345
4832.637, 69.709, -165.288
4902.929, 69.611, -167.581
4974.244, 69.636, -168.361
5046.596, 69.646, -168.605
5120.000, 69.883, -169.129
5194.472, 70.158, -169.731
5270.027, 70.687, -171.871
5346.682, 71.271, -174.445
5424.451, 71.663, -178.587
5503.352, 71.954, 177.022
5583.399, 72.033, 171.781
5664.612, 72.156, 165.555
5747.006, 72.021, 159.453
5830.598, 71.568, 154.229
5915.406, 71.214, 150.431
6001.447, 70.808, 147.107
6088.740, 70.410, 144.200
6177.303, 69.922, 141.508
6267.154, 69.662, 139.377
6358.312, 69.187, 135.152
6450.796, 68.599, 132.230
6544.625, 67.792, 130.377
6639.818, 67.073, 130.314
6736.397, 66.354, 130.810
6834.380, 65.855, 132.503
6933.789, 65.515, 133.860
7034.643, 65.173, 135.995
7136.964, 65.069, 138.782
7240.773, 65.204, 140.809
7346.093, 65.585, 141.976
7452.944, 66.109, 141.532
7561.350, 66.804, 139.263
7671.332, 67.624, 132.203
7782.915, 67.913, 121.263
7896.120, 67.334, 106.067
8010.971, 65.451, 93.552
8127.493, 62.653, 85.938
8245.711, 59.431, 90.333
8365.647, 57.174, 102.428
8487.328, 56.641, 123.047
8610.779, 57.518, 133.693
8736.026, 59.382, 138.021
8863.095, 60.346, 131.941
8992.011, 60.842, 119.591
9122.803, 59.810, 108.036
9255.497, 58.234, 94.991
9390.121, 55.146, 85.760
9526.704, 51.671, 74.534
9665.273, 37.578, 20.054
9805.857, 41.286, -161.302
9948.487, 49.105, -144.209
10093.191, 50.061, -147.047
10240.000, 52.416, -127.701
10388.944, 56.010, -124.268
10540.055, 59.322, -130.125
10693.363, 61.765, -138.983
10848.902, 63.512, -153.097
11006.703, 63.890, -168.287
11166.799, 63.633, -177.235
11329.224, 63.584, 176.558
11494.012, 63.646, 170.041
11661.195, 63.486, 161.957
11830.812, 63.040, 154.922
12002.895, 62.460, 150.386
12177.480, 62.096, 146.600
12354.606, 61.811, 140.800
12534.309, 61.449, 134.573
12716.624, 61.162, 126.745
12901.592, 60.128, 117.773
13089.250, 59.554, 112.316
13279.637, 58.883, 99.750
13472.794, 57.501, 80.938
13668.760, 54.980, 62.057
13867.577, 51.118, 46.747
14069.285, 50.018, 48.132
14273.928, 52.143, 24.845
14481.547, 54.811, -6.277
14692.186, 56.210, -37.663
14905.889, 56.563, -54.660
15122.700, 59.037, -65.505
15342.664, 60.220, -85.349
15565.829, 60.484, -109.497
15792.239, 58.188, -106.762
16021.942, 59.697, -100.462
16254.986, 61.029, -107.015
16491.422, 62.153, -108.780
16731.295, 64.017, -116.111
16974.656, 65.464, -131.559
17221.559, 65.816, -150.209
17472.053, 64.652, -167.083
17726.189, 62.768, -177.708
17984.021, 60.954, -179.447
18245.605, 60.045, -178.323
18510.994, 59.388, 178.958
18780.242, 57.744, 178.313
19053.408, 57.024, -168.394
19330.547, 58.840, -165.777
19611.715, 59.645, -175.932
19896.975, 59.192, 172.897
