* Measurement data measured by REW V5.19
* Source: ASIO MOTU M Series, In 1
* Format: 1M Log Swept Sine, 1 sweep at -10.0 dBFS  With no timing reference
* Dated: 30 Apr, 2021 9:58:01 PM
* REW Settings:
*  C-weighting compensation: Off
*  Target level: 75.0 dB
* Note: ; 
* Measurement: Apr 30 21:58:01
* Smoothing: 1/48 octave
* Frequency Step: 1/48 octave
* Start Frequency: 10.1 Hz
*
* Freq(Hz), SPL(dB), Phase(degrees)
10.145, 64.837, 50.732
10.293, 64.853, 50.301
10.443, 64.869, 49.724
10.595, 64.894, 48.971
10.749, 64.921, 48.189
10.905, 64.942, 47.597
11.064, 64.961, 47.074
11.225, 64.983, 46.475
11.388, 65.005, 45.844
11.554, 65.027, 45.237
11.722, 65.048, 44.644
11.892, 65.068, 44.061
12.065, 65.088, 43.486
12.241, 65.107, 42.904
12.419, 65.127, 42.321
12.599, 65.147, 41.756
12.782, 65.166, 41.195
12.968, 65.186, 40.621
13.157, 65.205, 40.043
13.348, 65.223, 39.463
13.543, 65.239, 38.878
13.740, 65.251, 38.288
13.939, 65.259, 37.709
14.142, 65.263, 37.147
14.348, 65.263, 36.617
14.557, 65.263, 36.127
14.768, 65.263, 35.680
14.983, 65.265, 35.276
15.201, 65.274, 34.898
15.422, 65.290, 34.532
15.646, 65.311, 34.148
15.874, 65.337, 33.735
16.105, 65.365, 33.280
16.339, 65.389, 32.785
16.577, 65.409, 32.266
16.818, 65.421, 31.741
17.063, 65.427, 31.236
17.311, 65.430, 30.766
17.563, 65.431, 30.334
17.818, 65.433, 29.939
18.077, 65.439, 29.561
18.340, 65.448, 29.185
18.607, 65.457, 28.802
18.877, 65.466, 28.412
19.152, 65.473, 28.020
19.431, 65.478, 27.642
19.713, 65.481, 27.285
20.000, 65.485, 26.948
20.291, 65.492, 26.622
20.586, 65.501, 26.294
20.885, 65.511, 25.953
21.189, 65.519, 25.595
21.497, 65.524, 25.231
21.810, 65.524, 24.875
22.127, 65.521, 24.546
22.449, 65.517, 24.254
22.776, 65.515, 23.999
23.107, 65.518, 23.766
23.443, 65.528, 23.535
23.784, 65.543, 23.278
24.130, 65.559, 22.979
24.481, 65.574, 22.635
24.837, 65.581, 22.263
25.198, 65.581, 21.896
25.565, 65.574, 21.568
25.937, 65.565, 21.296
26.314, 65.560, 21.074
26.697, 65.561, 20.874
27.085, 65.569, 20.665
27.479, 65.578, 20.432
27.879, 65.586, 20.183
28.284, 65.591, 19.938
28.696, 65.596, 19.711
29.113, 65.604, 19.494
29.537, 65.614, 19.266
29.966, 65.623, 19.015
30.402, 65.628, 18.748
30.844, 65.628, 18.491
31.293, 65.625, 18.264
31.748, 65.622, 18.068
32.210, 65.623, 17.883
32.678, 65.625, 17.690
33.154, 65.627, 17.491
33.636, 65.627, 17.296
34.125, 65.629, 17.106
34.621, 65.631, 16.911
35.125, 65.632, 16.706
35.636, 65.629, 16.513
36.154, 65.627, 16.356
36.680, 65.629, 16.220
37.214, 65.635, 16.068
37.755, 65.637, 15.902
38.304, 65.635, 15.779
38.861, 65.638, 15.727
39.427, 65.655, 15.679
40.000, 65.677, 15.550
40.582, 65.691, 15.368
41.172, 65.695, 15.230
41.771, 65.704, 15.154
42.379, 65.722, 15.067
42.995, 65.743, 14.932
43.620, 65.763, 14.768
44.255, 65.781, 14.577
44.898, 65.794, 14.383
45.552, 65.809, 14.232
46.214, 65.836, 14.050
46.886, 65.860, 13.713
47.568, 65.850, 13.349
48.260, 65.825, 13.215
48.962, 65.831, 13.205
49.674, 65.853, 13.004
50.397, 65.845, 12.682
51.130, 65.816, 12.539
51.874, 65.807, 12.531
52.628, 65.814, 12.431
53.394, 65.812, 12.275
54.170, 65.806, 12.190
54.958, 65.811, 12.122
55.758, 65.814, 12.034
56.569, 65.816, 11.993
57.391, 65.825, 11.978
58.226, 65.834, 11.943
59.073, 65.839, 11.923
59.932, 65.844, 11.946
60.804, 65.859, 11.968
61.688, 65.878, 11.897
62.586, 65.885, 11.779
63.496, 65.894, 11.721
64.420, 65.913, 11.608
65.357, 65.922, 11.464
66.307, 65.938, 11.406
67.272, 65.968, 11.272
68.250, 65.990, 11.079
69.243, 66.008, 10.904
70.250, 66.029, 10.735
71.272, 66.052, 10.478
72.309, 66.040, 10.200
73.360, 66.031, 10.287
74.427, 66.072, 10.290
75.510, 66.094, 10.122
76.608, 66.109, 10.003
77.723, 66.116, 9.880
78.853, 66.131, 9.748
80.000, 66.132, 9.527
81.164, 66.135, 9.418
82.344, 66.154, 9.248
83.542, 66.170, 9.006
84.757, 66.173, 8.791
85.990, 66.180, 8.617
87.241, 66.173, 8.490
88.510, 66.190, 8.422
89.797, 66.188, 8.133
91.103, 66.176, 8.034
92.428, 66.170, 7.841
93.773, 66.148, 7.766
95.137, 66.147, 7.674
96.520, 66.134, 7.480
97.924, 66.117, 7.369
99.349, 66.107, 7.177
100.794, 66.094, 7.132
102.260, 66.096, 7.017
103.747, 66.099, 6.958
105.256, 66.077, 6.805
106.787, 66.058, 7.007
108.340, 66.077, 7.048
109.916, 66.073, 7.020
111.515, 66.072, 7.019
113.137, 66.066, 6.963
114.783, 66.064, 6.863
116.452, 66.062, 6.730
118.146, 66.076, 6.787
119.865, 66.136, 6.642
121.608, 66.112, 6.616
123.377, 66.126, 6.866
125.171, 66.134, 6.793
126.992, 66.120, 6.671
128.839, 66.118, 6.527
130.713, 66.125, 6.370
132.615, 66.135, 6.191
134.543, 66.140, 6.075
136.500, 66.133, 6.085
138.486, 66.144, 6.113
140.500, 66.133, 5.898
142.544, 66.116, 5.683
144.617, 66.091, 5.252
146.721, 66.070, 5.334
148.855, 66.081, 5.360
151.020, 66.077, 5.432
153.217, 66.077, 5.341
155.445, 66.055, 5.173
157.706, 66.029, 5.210
160.000, 66.015, 5.301
162.327, 66.029, 4.850
164.688, 65.985, 4.922
167.084, 66.004, 4.934
169.514, 65.960, 5.006
171.980, 65.928, 5.198
174.481, 65.929, 5.206
177.019, 65.900, 5.217
179.594, 65.882, 5.382
182.206, 65.869, 5.482
184.856, 65.857, 5.747
187.545, 65.822, 6.038
190.273, 65.799, 6.332
193.041, 65.817, 6.298
195.849, 65.833, 6.409
198.697, 65.861, 6.642
201.587, 65.845, 6.776
204.520, 65.856, 6.950
207.494, 65.882, 7.190
210.512, 65.900, 7.395
213.574, 65.930, 7.537
216.681, 65.958, 7.624
219.833, 65.963, 7.739
223.030, 65.985, 7.762
226.274, 66.068, 7.798
229.565, 66.114, 7.858
232.905, 66.083, 7.945
236.292, 66.103, 7.967
239.729, 66.167, 8.026
243.216, 66.198, 8.335
246.754, 66.175, 7.785
250.343, 66.232, 7.491
253.984, 66.263, 7.720
257.678, 66.272, 7.671
261.426, 66.291, 7.452
265.229, 66.321, 7.501
269.087, 66.316, 7.360
273.001, 66.319, 7.078
276.972, 66.340, 6.946
281.000, 66.375, 6.710
285.088, 66.363, 6.389
289.234, 66.325, 6.216
293.441, 66.326, 6.006
297.710, 66.288, 5.746
302.040, 66.257, 5.636
306.433, 66.228, 5.706
310.890, 66.149, 6.014
315.412, 66.124, 6.312
320.000, 66.109, 6.608
324.655, 66.124, 6.819
329.377, 66.103, 7.189
334.168, 66.121, 7.449
339.028, 66.150, 7.748
343.959, 66.183, 7.846
348.962, 66.201, 7.836
354.038, 66.228, 7.955
359.188, 66.247, 8.070
364.412, 66.256, 7.959
369.713, 66.258, 7.963
375.090, 66.262, 8.167
380.546, 66.271, 8.228
386.081, 66.278, 8.446
391.697, 66.282, 8.669
397.395, 66.325, 8.910
403.175, 66.382, 9.032
409.039, 66.430, 9.000
414.989, 66.463, 8.793
421.025, 66.458, 8.630
427.149, 66.484, 8.838
433.362, 66.504, 8.782
439.665, 66.499, 8.595
446.060, 66.517, 8.688
452.548, 66.565, 8.593
459.131, 66.526, 8.390
465.809, 66.519, 8.584
472.584, 66.510, 8.612
479.458, 66.507, 8.389
486.432, 66.481, 8.385
493.507, 66.448, 8.728
500.686, 66.437, 9.337
507.968, 66.475, 9.792
515.357, 66.513, 10.148
522.853, 66.594, 10.344
530.458, 66.633, 10.403
538.174, 66.683, 10.771
546.002, 66.785, 10.899
553.943, 66.870, 10.508
562.001, 66.900, 10.149
570.175, 66.876, 9.989
578.469, 66.869, 10.484
586.883, 67.003, 10.667
595.419, 67.078, 10.154
604.080, 67.088, 9.682
612.866, 67.074, 9.389
621.780, 67.051, 9.393
630.824, 67.033, 9.507
640.000, 67.052, 9.726
649.309, 67.079, 9.753
658.753, 67.087, 9.907
668.335, 67.112, 10.109
678.056, 67.207, 10.381
687.919, 67.255, 10.300
697.925, 67.346, 10.668
708.076, 67.478, 10.380
718.376, 67.542, 10.093
728.825, 67.656, 9.879
739.426, 67.754, 9.140
750.181, 67.795, 8.365
761.093, 67.833, 7.738
772.163, 67.877, 6.673
783.394, 67.776, 5.691
794.789, 67.693, 5.851
806.349, 67.744, 5.534
818.078, 67.713, 4.631
829.977, 67.599, 4.558
842.050, 67.606, 4.707
854.297, 67.624, 4.241
866.724, 67.604, 3.885
879.330, 67.603, 3.267
892.120, 67.524, 2.763
905.097, 67.420, 2.226
918.262, 67.313, 2.063
931.618, 67.180, 2.116
945.169, 67.031, 2.301
958.917, 66.929, 3.428
972.864, 66.912, 3.908
987.015, 66.878, 5.392
1001.371, 67.150, 5.949
1015.937, 67.215, 5.078
1030.714, 67.173, 5.148
1045.706, 67.247, 5.301
1060.916, 67.334, 4.890
1076.347, 67.386, 4.593
1092.003, 67.398, 3.532
1107.887, 67.242, 3.300
1124.001, 67.261, 3.042
1140.350, 67.180, 2.723
1156.937, 67.127, 3.067
1173.765, 67.252, 2.763
1190.838, 67.102, 1.267
1208.159, 66.970, 2.380
1225.732, 67.067, 1.570
1243.561, 66.864, 1.355
1261.649, 66.830, 1.799
1280.000, 66.810, 1.351
1298.618, 66.593, 1.115
1317.507, 66.522, 2.616
1336.670, 66.579, 2.080
1356.113, 66.424, 2.551
1375.838, 66.406, 3.130
1395.850, 66.460, 3.410
1416.153, 66.385, 3.157
1436.751, 66.471, 3.702
1457.649, 66.468, 2.287
1478.851, 66.223, 2.363
1500.362, 66.268, 2.164
1522.185, 66.005, 1.384
1544.326, 65.729, 2.412
1566.789, 65.709, 2.806
1589.578, 65.449, 3.072
1612.699, 65.229, 3.644
1636.156, 64.913, 5.507
1659.955, 64.796, 7.794
1684.099, 64.785, 10.158
1708.595, 64.814, 12.138
1733.447, 64.927, 13.945
1758.661, 65.099, 15.201
1784.241, 65.128, 15.590
1810.193, 65.122, 16.686
1836.523, 65.105, 18.322
1863.236, 65.331, 20.653
1890.338, 65.576, 20.469
1917.833, 65.401, 21.369
1945.729, 65.596, 23.364
1974.030, 65.583, 25.158
2002.743, 66.055, 28.521
2031.873, 66.609, 27.333
2061.428, 66.681, 26.286
2091.412, 66.761, 25.859
2121.832, 66.592, 26.959
2152.695, 66.825, 29.063
2184.007, 67.055, 29.917
2215.774, 67.298, 30.974
2248.003, 67.668, 32.306
2280.701, 68.107, 31.943
2313.874, 68.443, 31.442
2347.530, 68.818, 29.622
2381.676, 68.758, 27.990
2416.318, 68.811, 28.468
2451.464, 68.985, 29.088
2487.122, 69.488, 29.698
2523.298, 69.837, 26.817
2560.000, 69.912, 25.090
2597.236, 69.915, 23.429
2635.014, 69.875, 22.947
2673.341, 69.890, 22.404
2712.226, 69.910, 23.166
2751.676, 70.145, 23.400
2791.700, 70.526, 23.173
2832.306, 70.787, 21.173
2873.503, 70.883, 18.989
2915.299, 70.936, 18.438
2957.703, 71.124, 16.097
3000.724, 71.151, 14.478
3044.370, 70.958, 12.433
3088.652, 70.981, 11.982
3133.577, 70.925, 11.581
3179.156, 71.033, 10.401
3225.398, 71.122, 8.904
3272.312, 71.023, 6.550
3319.909, 70.808, 4.969
3368.198, 70.593, 4.905
3417.190, 70.578, 4.882
3466.894, 70.523, 3.441
3517.321, 70.349, 2.712
3568.482, 70.209, 2.801
3620.387, 70.118, 2.243
3673.046, 69.990, 1.678
3726.472, 69.816, 1.468
3780.675, 69.590, 1.736
3835.666, 69.446, 2.900
3891.457, 69.460, 3.732
3948.060, 69.442, 3.743
4005.486, 69.356, 4.472
4063.747, 69.359, 5.594
4122.855, 69.408, 6.018
4182.824, 69.390, 6.222
4243.664, 69.335, 7.467
4305.390, 69.437, 9.281
4368.013, 69.669, 10.535
4431.547, 69.902, 11.330
4496.005, 70.177, 12.315
4561.401, 70.552, 12.834
4627.749, 70.927, 12.828
4695.061, 71.324, 12.783
4763.352, 71.823, 12.580
4832.637, 72.446, 11.669
4902.929, 73.130, 9.147
4974.244, 73.700, 5.456
5046.596, 74.254, 0.772
5120.000, 74.606, -5.558
5194.472, 74.717, -11.855
5270.027, 74.728, -18.371
5346.682, 74.552, -25.787
5424.451, 73.913, -32.925
5503.352, 73.093, -36.941
5583.399, 72.408, -39.999
5664.612, 71.756, -42.657
5747.006, 71.055, -45.062
5830.598, 70.334, -46.776
5915.406, 69.555, -47.624
6001.447, 68.902, -47.458
6088.740, 68.286, -47.639
6177.303, 67.661, -46.951
6267.154, 67.150, -46.068
6358.312, 66.618, -45.100
6450.796, 66.194, -43.367
6544.625, 65.850, -41.984
6639.818, 65.588, -40.506
6736.397, 65.384, -39.466
6834.380, 65.202, -38.766
6933.789, 65.044, -38.149
7034.643, 64.948, -37.754
7136.964, 64.930, -38.492
7240.773, 64.753, -40.058
7346.093, 64.523, -41.462
7452.944, 64.246, -43.697
7561.350, 63.792, -45.725
7671.332, 63.245, -47.990
7782.915, 62.500, -49.187
7896.120, 61.772, -48.618
8010.971, 61.406, -47.990
8127.493, 61.069, -50.215
8245.711, 60.442, -54.616
8365.647, 59.099, -60.063
8487.328, 56.722, -59.807
8610.779, 54.679, -47.783
8736.026, 54.672, -37.969
8863.095, 54.708, -41.496
8992.011, 52.511, -51.001
9122.803, 47.019, -27.761
9255.497, 49.564, 44.023
9390.121, 54.921, 48.129
9526.704, 57.178, 32.204
9665.273, 57.435, 17.907
9805.857, 56.439, 10.375
9948.487, 55.057, 10.561
10093.191, 53.731, 17.161
10240.000, 53.044, 29.876
10388.944, 53.696, 44.502
10540.055, 55.559, 56.346
10693.363, 58.580, 60.422
10848.902, 61.093, 48.668
11006.703, 61.477, 27.009
11166.799, 59.398, 9.392
11329.224, 55.077, 12.531
11494.012, 52.589, 52.210
11661.195, 57.435, 81.063
11830.812, 61.660, 77.911
12002.895, 64.179, 61.790
12177.480, 64.878, 42.347
12354.606, 64.120, 29.082
12534.309, 63.425, 26.092
12716.624, 63.975, 23.279
12901.592, 64.750, 14.699
13089.250, 65.225, 1.735
13279.637, 65.121, -14.438
13472.794, 64.343, -31.511
13668.760, 62.985, -47.371
13867.577, 61.364, -60.515
14069.285, 60.099, -71.630
14273.928, 59.709, -85.598
14481.547, 59.807, -106.324
14692.186, 59.904, -132.779
14905.889, 59.604, -161.727
15122.700, 58.601, 172.490
15342.664, 57.118, 155.984
15565.829, 56.213, 149.125
15792.239, 55.964, 144.087
16021.942, 55.917, 143.883
16254.986, 56.915, 143.544
16491.422, 57.657, 138.765
16731.295, 58.093, 137.796
16974.656, 59.839, 138.198
17221.559, 61.849, 126.374
17472.053, 62.067, 103.842
17726.189, 59.493, 87.686
17984.021, 55.627, 98.984
18245.605, 55.605, 123.908
18510.994, 58.788, 136.586
18780.242, 61.967, 130.797
19053.408, 63.430, 113.570
19330.547, 63.460, 98.179
19611.715, 63.187, 87.290
19896.975, 63.128, 77.146
