* Measurement data measured by REW V5.19
* Source: ASIO MOTU M Series, In 1
* Format: 512k Log Swept Sine, 2 sweeps at -10.0 dBFS  With no timing reference
* Dated: 10 Sep, 2020 4:29:57 PM
* REW Settings:
*  C-weighting compensation: Off
*  Target level: 75.0 dB
* Note: ; 
* Measurement: Sep 10 16:29:57
* Smoothing: None
* Frequency Step: 1/48 octave
* Start Frequency: 10.1 Hz
*
* Freq(Hz), SPL(dB), Phase(degrees)
10.145, 54.522, -51.168
10.293, 54.844, -51.579
10.443, 55.172, -52.325
10.595, 55.532, -53.502
10.749, 55.891, -55.042
10.905, 56.226, -56.940
11.064, 56.535, -59.156
11.225, 56.798, -61.578
11.388, 57.014, -64.194
11.554, 57.173, -66.833
11.722, 57.274, -69.482
11.892, 57.319, -71.943
12.065, 57.310, -74.193
12.241, 57.265, -76.032
12.419, 57.193, -77.450
12.599, 57.132, -78.320
12.782, 57.099, -78.733
12.968, 57.136, -78.733
13.157, 57.250, -78.622
13.348, 57.461, -78.646
13.543, 57.732, -78.865
13.740, 58.055, -79.688
13.939, 58.364, -81.107
14.142, 58.640, -83.029
14.348, 58.842, -85.346
14.557, 58.956, -87.756
14.768, 58.974, -90.114
14.983, 58.907, -92.040
15.201, 58.792, -93.380
15.422, 58.659, -93.961
15.646, 58.590, -93.856
15.874, 58.613, -93.382
16.105, 58.758, -92.872
16.339, 58.986, -92.930
16.577, 59.236, -93.671
16.818, 59.446, -95.150
17.063, 59.545, -97.108
17.311, 59.501, -99.064
17.563, 59.319, -100.571
17.818, 59.022, -101.133
18.077, 58.701, -100.248
18.340, 58.492, -97.970
18.607, 58.494, -94.860
18.877, 58.755, -91.771
19.152, 59.227, -89.700
19.431, 59.773, -89.069
19.713, 60.293, -89.716
20.000, 60.726, -91.334
20.291, 61.040, -93.575
20.586, 61.227, -96.126
20.885, 61.286, -98.716
21.189, 61.226, -101.075
21.497, 61.067, -102.890
21.810, 60.862, -103.866
22.127, 60.699, -103.912
22.449, 60.675, -103.381
22.776, 60.832, -103.071
23.107, 61.111, -103.803
23.443, 61.384, -105.917
23.784, 61.521, -109.116
24.130, 61.445, -112.635
24.481, 61.162, -115.519
24.837, 60.773, -116.963
25.198, 60.450, -116.795
25.565, 60.332, -115.776
25.937, 60.409, -115.039
26.314, 60.553, -115.064
26.697, 60.660, -115.441
27.085, 60.749, -115.534
27.479, 60.914, -115.329
27.879, 61.192, -115.561
28.284, 61.476, -116.865
28.696, 61.617, -118.993
29.113, 61.549, -120.925
29.537, 61.370, -121.626
29.966, 61.283, -121.086
30.402, 61.401, -120.491
30.844, 61.626, -121.046
31.293, 61.782, -122.783
31.748, 61.802, -125.024
32.210, 61.713, -127.363
32.678, 61.511, -129.808
33.154, 61.122, -131.995
33.636, 60.552, -132.515
34.125, 60.100, -130.139
34.621, 60.171, -126.612
35.125, 60.633, -125.587
35.636, 60.947, -127.281
36.154, 60.888, -128.668
36.680, 60.806, -127.549
37.214, 61.140, -125.745
37.755, 61.643, -126.574
38.304, 61.780, -129.288
38.861, 61.491, -130.168
39.427, 61.310, -127.690
40.000, 61.628, -125.051
40.582, 62.028, -125.118
41.172, 62.145, -125.943
41.771, 62.190, -125.500
42.379, 62.448, -125.134
42.995, 62.684, -126.736
43.620, 62.571, -128.729
44.255, 62.268, -128.294
44.898, 62.296, -125.436
45.552, 62.835, -123.639
46.214, 63.480, -125.075
46.886, 63.827, -128.688
47.568, 63.771, -132.240
48.260, 63.469, -133.974
48.962, 63.196, -133.657
49.674, 63.112, -132.421
50.397, 63.177, -131.506
51.130, 63.228, -131.069
51.874, 63.256, -129.876
52.628, 63.559, -127.968
53.394, 64.159, -128.070
54.170, 64.627, -130.759
54.958, 64.798, -133.965
55.758, 64.797, -136.472
56.569, 64.756, -138.016
57.391, 64.816, -139.100
58.226, 64.897, -141.070
59.073, 64.767, -143.093
59.932, 64.619, -143.592
60.804, 64.655, -144.126
61.688, 64.642, -145.309
62.586, 64.635, -146.035
63.496, 64.665, -147.555
64.420, 64.469, -148.809
65.357, 64.395, -148.404
66.307, 64.445, -149.474
67.272, 64.171, -149.900
68.250, 64.212, -148.157
69.243, 64.451, -149.084
70.250, 64.397, -150.321
71.272, 64.332, -151.044
72.309, 64.214, -150.683
73.360, 64.482, -150.856
74.427, 64.360, -153.677
75.510, 64.131, -152.751
76.608, 64.298, -153.398
77.723, 64.256, -153.966
78.853, 64.392, -155.055
80.000, 64.225, -155.836
81.164, 64.333, -154.794
82.344, 64.374, -155.857
83.542, 64.279, -154.310
84.757, 64.481, -155.290
85.990, 64.113, -154.936
87.241, 64.218, -154.057
88.510, 64.296, -154.103
89.797, 64.274, -156.363
91.103, 64.283, -155.323
92.428, 64.385, -158.422
93.773, 64.174, -158.401
95.137, 64.027, -158.410
96.520, 64.308, -156.804
97.924, 64.295, -159.272
99.349, 64.195, -157.805
100.794, 64.122, -158.083
102.260, 64.190, -157.405
103.747, 64.072, -157.600
105.256, 64.167, -158.076
106.787, 63.990, -159.047
108.340, 64.144, -157.854
109.916, 64.213, -158.548
111.515, 64.285, -159.838
113.137, 64.250, -159.091
114.783, 64.158, -160.094
116.452, 64.204, -159.647
118.146, 64.287, -159.110
119.865, 64.222, -159.957
121.608, 64.374, -158.885
123.377, 64.298, -159.644
125.171, 64.317, -159.344
126.992, 64.256, -160.008
128.839, 64.217, -160.326
130.713, 64.328, -159.555
132.615, 64.264, -159.352
134.543, 64.377, -160.638
136.500, 64.377, -161.441
138.486, 64.390, -161.050
140.500, 64.297, -161.610
142.544, 64.421, -160.689
144.617, 64.325, -160.448
146.721, 64.380, -161.459
148.855, 64.359, -161.509
151.020, 64.341, -161.417
153.217, 64.402, -162.059
155.445, 64.448, -161.902
157.706, 64.516, -161.155
160.000, 64.367, -162.062
162.327, 64.497, -160.554
164.688, 64.225, -163.076
167.084, 64.359, -163.444
169.514, 64.392, -163.344
171.980, 64.364, -162.658
174.481, 64.525, -163.217
177.019, 64.546, -161.802
179.594, 64.532, -161.632
182.206, 64.554, -162.367
184.856, 64.509, -162.110
187.545, 64.611, -162.932
190.273, 64.492, -162.920
193.041, 64.482, -163.101
195.849, 64.658, -163.043
198.697, 64.526, -162.375
201.587, 64.554, -162.881
204.520, 64.532, -162.553
207.494, 64.806, -162.671
210.512, 64.616, -163.136
213.574, 64.525, -162.609
216.681, 64.614, -162.827
219.833, 64.668, -163.125
223.030, 64.709, -163.078
226.274, 64.773, -163.031
229.565, 64.866, -161.896
232.905, 64.876, -163.071
236.292, 64.763, -163.361
239.729, 64.956, -162.638
243.216, 64.916, -162.286
246.754, 64.860, -162.932
250.343, 64.843, -162.974
253.984, 64.933, -163.517
257.678, 64.951, -162.174
261.426, 65.030, -163.849
265.229, 65.204, -164.533
269.087, 64.841, -162.715
273.001, 64.868, -165.137
276.972, 65.124, -163.832
281.000, 65.026, -162.734
285.088, 65.198, -163.933
289.234, 65.310, -163.236
293.441, 65.300, -163.723
297.710, 65.337, -163.433
302.040, 65.390, -163.926
306.433, 65.408, -164.172
310.890, 65.452, -163.625
315.412, 65.509, -164.615
320.000, 65.527, -164.849
324.655, 65.544, -164.784
329.377, 65.498, -165.092
334.168, 65.619, -165.556
339.028, 65.587, -166.094
343.959, 65.557, -166.561
348.962, 65.491, -166.362
354.038, 65.532, -166.432
359.188, 65.503, -166.465
364.412, 65.467, -166.568
369.713, 65.433, -165.882
375.090, 65.468, -166.426
380.546, 65.453, -166.324
386.081, 65.531, -166.063
391.697, 65.503, -165.493
397.395, 65.480, -165.601
403.175, 65.538, -165.595
409.039, 65.610, -165.545
414.989, 65.785, -165.819
421.025, 65.532, -165.189
427.149, 65.709, -165.374
433.362, 65.753, -165.975
439.665, 65.778, -165.971
446.060, 65.787, -166.463
452.548, 65.815, -167.481
459.131, 65.702, -166.841
465.809, 65.757, -167.537
472.584, 65.671, -168.237
479.458, 65.623, -167.321
486.432, 65.522, -167.536
493.507, 65.549, -167.092
500.686, 65.475, -166.848
507.968, 65.480, -166.115
515.357, 65.434, -165.114
522.853, 65.477, -164.462
530.458, 65.528, -163.826
538.174, 65.684, -163.077
546.002, 65.836, -163.069
553.943, 65.717, -162.174
562.001, 66.078, -161.597
570.175, 66.105, -161.527
578.469, 66.210, -161.841
586.883, 66.311, -161.612
595.419, 66.439, -161.441
604.080, 66.582, -161.153
612.866, 66.704, -161.946
621.780, 66.865, -161.981
630.824, 66.982, -162.288
640.000, 67.129, -162.838
649.309, 67.231, -163.008
658.753, 67.402, -163.572
668.335, 67.445, -164.062
678.056, 67.604, -164.963
687.919, 67.657, -165.686
697.925, 67.755, -167.049
708.076, 67.874, -167.378
718.376, 67.773, -168.596
728.825, 67.816, -168.678
739.426, 67.830, -169.172
750.181, 67.978, -169.453
761.093, 67.972, -170.287
772.163, 67.994, -171.343
783.394, 68.006, -171.939
794.789, 67.955, -172.200
806.349, 68.116, -172.546
818.078, 68.107, -173.603
829.977, 68.140, -174.119
842.050, 68.262, -174.577
854.297, 68.211, -176.290
866.724, 68.389, -176.887
879.330, 68.402, -178.021
892.120, 68.402, -179.251
905.097, 68.378, 178.956
918.262, 68.270, 177.037
931.618, 68.101, 174.390
945.169, 67.794, 174.575
958.917, 67.520, 173.353
972.864, 67.119, 173.198
987.015, 66.915, 174.089
1001.371, 66.676, 174.247
1015.937, 66.498, 176.533
1030.714, 66.615, 178.357
1045.706, 66.754, 179.289
1060.916, 67.062, 178.886
1076.347, 67.131, 178.851
1092.003, 67.297, 177.848
1107.887, 67.192, 176.230
1124.001, 67.278, 175.793
1140.350, 67.139, 173.973
1156.937, 66.805, 173.715
1173.765, 66.976, 173.223
1190.838, 66.905, 173.047
1208.159, 66.759, 172.587
1225.732, 66.594, 171.618
1243.561, 66.453, 172.058
1261.649, 66.386, 171.478
1280.000, 66.302, 171.443
1298.618, 65.971, 170.533
1317.507, 65.927, 171.686
1336.670, 65.869, 170.856
1356.113, 65.536, 171.000
1375.838, 65.400, 171.923
1395.850, 65.303, 171.572
1416.153, 65.156, 172.337
1436.751, 64.939, 173.730
1457.649, 64.627, 174.299
1478.851, 64.565, 175.739
1500.362, 64.665, 175.742
1522.185, 64.228, 177.356
1544.326, 64.265, 177.969
1566.789, 64.256, -179.634
1589.578, 64.180, -177.390
1612.699, 64.059, -176.434
1636.156, 64.105, -173.106
1659.955, 64.397, -171.202
1684.099, 64.867, -170.162
1708.595, 64.952, -170.596
1733.447, 65.289, -170.794
1758.661, 65.115, -170.455
1784.241, 65.180, -169.334
1810.193, 65.188, -169.759
1836.523, 65.264, -167.915
1863.236, 65.472, -168.061
1890.338, 65.541, -167.147
1917.833, 65.708, -165.105
1945.729, 65.971, -165.216
1974.030, 65.880, -165.664
2002.743, 66.356, -164.369
2031.873, 66.343, -163.545
2061.428, 66.733, -163.240
2091.412, 66.892, -163.436
2121.832, 67.215, -163.331
2152.695, 67.558, -165.168
2184.007, 67.593, -167.190
2215.774, 67.809, -165.573
2248.003, 67.728, -167.070
2280.701, 68.063, -166.521
2313.874, 68.110, -165.038
2347.530, 68.641, -166.656
2381.676, 68.721, -168.192
2416.318, 68.994, -169.814
2451.464, 69.242, -172.434
2487.122, 69.138, -173.680
2523.298, 69.247, -174.078
2560.000, 69.255, -176.264
2597.236, 69.446, -177.911
2635.014, 69.369, 179.765
2673.341, 69.548, 178.149
2712.226, 69.427, 176.870
2751.676, 69.458, 176.463
2791.700, 69.143, 173.991
2832.306, 69.028, 173.424
2873.503, 68.804, 173.129
2915.299, 68.887, 172.361
2957.703, 68.847, 173.621
3000.724, 69.171, 173.320
3044.370, 69.299, 172.508
3088.652, 69.276, 169.676
3133.577, 69.256, 168.143
3179.156, 69.135, 166.201
3225.398, 69.064, 164.173
3272.312, 69.029, 162.653
3319.909, 68.815, 160.952
3368.198, 68.596, 160.003
3417.190, 68.363, 158.489
3466.894, 68.280, 157.694
3517.321, 68.036, 156.157
3568.482, 67.548, 155.685
3620.387, 67.180, 154.586
3673.046, 66.886, 155.253
3726.472, 66.326, 156.284
3780.675, 66.180, 158.653
3835.666, 66.273, 160.740
3891.457, 66.282, 160.837
3948.060, 66.328, 161.639
4005.486, 66.065, 160.859
4063.747, 65.761, 160.719
4122.855, 65.410, 161.544
4182.824, 65.121, 164.421
4243.664, 65.002, 167.036
4305.390, 64.945, 170.965
4368.013, 65.231, 175.361
4431.547, 65.832, 177.719
4496.005, 66.474, 178.801
4561.401, 67.115, 176.325
4627.749, 67.409, 174.361
4695.061, 67.407, 172.826
4763.352, 67.158, 171.788
4832.637, 67.165, 173.334
4902.929, 67.258, 176.145
4974.244, 67.762, 178.685
5046.596, 68.576, -179.086
5120.000, 69.697, -179.627
5194.472, 70.761, 175.394
5270.027, 71.468, 168.262
5346.682, 71.567, 159.849
5424.451, 71.488, 154.048
5503.352, 71.059, 148.805
5583.399, 70.894, 144.759
5664.612, 70.783, 140.438
5747.006, 70.403, 135.491
5830.598, 69.887, 130.713
5915.406, 69.250, 127.112
6001.447, 68.430, 123.701
6088.740, 67.491, 123.026
6177.303, 66.834, 124.054
6267.154, 66.352, 126.147
6358.312, 66.301, 125.998
6450.796, 65.925, 126.392
6544.625, 65.759, 126.644
6639.818, 65.457, 126.340
6736.397, 65.157, 125.129
6834.380, 64.640, 126.672
6933.789, 64.314, 127.978
7034.643, 64.497, 131.201
7136.964, 64.710, 132.041
7240.773, 65.163, 133.032
7346.093, 65.666, 133.846
7452.944, 66.907, 132.564
7561.350, 67.990, 123.273
7671.332, 68.716, 112.394
7782.915, 69.188, 97.084
7896.120, 68.890, 76.179
8010.971, 67.535, 54.398
8127.493, 65.413, 22.184
8245.711, 57.709, -14.658
8365.647, 37.499, -91.855
8487.328, 49.394, 100.592
8610.779, 46.055, 83.137
8736.026, 31.725, 155.275
8863.095, 51.409, -157.140
8992.011, 56.834, 167.484
9122.803, 56.937, 133.053
9255.497, 53.328, 109.494
9390.121, 45.927, 106.290
9526.704, 42.791, 170.846
9665.273, 46.035, -170.792
9805.857, 47.751, -155.073
9948.487, 50.316, -144.547
10093.191, 52.436, -138.783
10240.000, 54.918, -136.155
10388.944, 57.175, -142.692
10540.055, 58.032, -152.825
10693.363, 57.545, -154.576
10848.902, 58.516, -148.871
11006.703, 60.110, -150.323
11166.799, 61.783, -154.679
11329.224, 63.055, -164.140
11494.012, 63.598, -175.796
11661.195, 63.712, 172.221
11830.812, 63.110, 164.453
12002.895, 63.025, 156.518
12177.480, 62.733, 141.036
12354.606, 60.237, 125.938
12534.309, 55.298, 124.054
12716.624, 54.804, -177.211
12901.592, 60.664, 171.776
13089.250, 62.340, 150.353
13279.637, 61.548, 129.052
13472.794, 60.815, 111.517
13668.760, 58.278, 97.052
13867.577, 57.347, 87.607
14069.285, 55.865, 73.107
14273.928, 55.545, 60.329
14481.547, 57.327, 34.977
14692.186, 57.901, -5.868
14905.889, 57.231, -39.238
15122.700, 56.314, -57.043
15342.664, 56.898, -65.099
15565.829, 57.286, -74.624
15792.239, 58.405, -76.764
16021.942, 60.320, -81.921
16254.986, 62.330, -92.973
16491.422, 63.801, -109.592
16731.295, 63.551, -130.036
16974.656, 61.703, -137.174
17221.559, 61.856, -137.849
17472.053, 62.000, -142.117
17726.189, 62.340, -150.236
17984.021, 62.105, -163.779
18245.605, 60.195, -165.457
18510.994, 60.316, -170.642
18780.242, 58.612, -172.871
19053.408, 59.236, -168.508
19330.547, 59.302, -177.998
19611.715, 58.256, 177.043
19896.975, 57.605, 172.501
