* Measurement data measured by REW V5.19
* Source: ASIO MOTU M Series, In 1
* Format: 512k Log Swept Sine, 2 sweeps at -10.0 dBFS  With no timing reference
* Dated: 10 Sep, 2020 4:50:05 PM
* REW Settings:
*  C-weighting compensation: Off
*  Target level: 75.0 dB
* Note: ; 
* Measurement: Sep 10 16:50:05
* Smoothing: None
* Frequency Step: 1/48 octave
* Start Frequency: 10.1 Hz
*
* Freq(Hz), SPL(dB), Phase(degrees)
10.145, 46.466, -24.185
10.293, 46.515, -26.412
10.443, 46.564, -28.581
10.595, 46.599, -30.037
10.749, 46.640, -31.149
10.905, 46.704, -31.931
11.064, 46.789, -32.414
11.225, 46.905, -32.713
11.388, 47.049, -32.816
11.554, 47.215, -32.817
11.722, 47.404, -32.699
11.892, 47.613, -32.478
12.065, 47.843, -32.156
12.241, 48.102, -31.753
12.419, 48.391, -31.310
12.599, 48.719, -30.941
12.782, 49.078, -30.718
12.968, 49.460, -30.797
13.157, 49.841, -31.206
13.348, 50.204, -32.023
13.543, 50.514, -33.124
13.740, 50.759, -34.480
13.939, 50.918, -35.806
14.142, 50.996, -36.957
14.348, 50.997, -37.655
14.557, 50.996, -37.714
14.768, 50.993, -37.060
14.983, 51.076, -35.836
15.201, 51.281, -34.479
15.422, 51.627, -33.363
15.646, 52.047, -33.096
15.874, 52.484, -33.699
16.105, 52.872, -35.212
16.339, 53.146, -37.222
16.577, 53.301, -39.328
16.818, 53.341, -41.154
17.063, 53.317, -42.211
17.311, 53.326, -42.424
17.563, 53.436, -42.049
17.818, 53.705, -41.564
18.077, 54.110, -41.800
18.340, 54.544, -43.042
18.607, 54.920, -45.162
18.877, 55.165, -47.744
19.152, 55.254, -50.108
19.431, 55.237, -51.493
19.713, 55.241, -51.565
20.000, 55.398, -50.668
20.291, 55.773, -49.692
20.586, 56.313, -49.655
20.885, 56.861, -51.014
21.189, 57.264, -53.347
21.497, 57.455, -55.690
21.810, 57.480, -56.996
22.127, 57.502, -56.652
22.449, 57.728, -55.125
22.776, 58.236, -53.929
23.107, 58.895, -54.434
23.443, 59.475, -56.873
23.784, 59.804, -60.433
24.130, 59.837, -63.853
24.481, 59.662, -65.960
24.837, 59.485, -66.285
25.198, 59.504, -65.619
25.565, 59.732, -65.507
25.937, 59.992, -66.752
26.314, 60.109, -68.822
26.697, 60.064, -70.505
27.085, 60.015, -71.031
27.479, 60.157, -71.018
27.879, 60.490, -72.025
28.284, 60.793, -74.760
28.696, 60.850, -78.353
29.113, 60.629, -80.971
29.537, 60.363, -81.074
29.966, 60.435, -79.267
30.402, 60.949, -78.257
30.844, 61.586, -79.877
31.293, 61.987, -83.316
31.748, 62.054, -86.611
32.210, 61.937, -88.160
32.678, 61.920, -87.839
33.154, 62.157, -87.100
33.636, 62.534, -87.396
34.125, 62.864, -88.753
34.621, 63.090, -90.470
35.125, 63.257, -92.240
35.636, 63.372, -94.298
36.154, 63.357, -96.556
36.680, 63.189, -98.074
37.214, 63.040, -97.931
37.755, 63.164, -97.004
38.304, 63.534, -97.279
38.861, 63.857, -99.123
39.427, 64.036, -101.111
40.000, 64.222, -102.582
40.582, 64.469, -104.668
41.172, 64.527, -107.652
41.771, 64.255, -109.422
42.379, 64.015, -107.775
42.995, 64.381, -105.117
43.620, 65.093, -106.309
44.255, 65.414, -111.385
44.898, 64.988, -116.376
45.552, 64.169, -116.431
46.214, 64.045, -111.862
46.886, 64.770, -110.933
47.568, 65.210, -115.027
48.260, 65.099, -118.205
48.962, 65.164, -118.541
49.674, 65.572, -120.300
50.397, 65.729, -123.456
51.130, 65.752, -124.677
51.874, 66.041, -125.534
52.628, 66.269, -128.043
53.394, 66.244, -130.040
54.170, 66.272, -131.038
54.958, 66.355, -132.759
55.758, 66.301, -134.933
56.569, 66.165, -136.439
57.391, 66.125, -137.324
58.226, 66.205, -138.770
59.073, 66.209, -140.835
59.932, 66.132, -142.255
60.804, 66.121, -143.087
61.688, 66.153, -144.198
62.586, 66.091, -145.512
63.496, 66.009, -145.919
64.420, 66.124, -146.977
65.357, 66.004, -149.695
66.307, 65.704, -149.898
67.272, 65.901, -150.202
68.250, 65.812, -153.178
69.243, 65.505, -152.610
70.250, 65.741, -152.123
71.272, 65.782, -153.807
72.309, 65.704, -154.846
73.360, 65.494, -155.788
74.427, 65.450, -155.412
75.510, 65.479, -157.124
76.608, 65.377, -157.917
77.723, 65.344, -159.453
78.853, 65.235, -158.571
80.000, 65.614, -159.766
81.164, 65.350, -161.694
82.344, 65.352, -161.224
83.542, 65.150, -162.797
84.757, 64.994, -161.816
85.990, 65.012, -163.030
87.241, 64.855, -163.257
88.510, 64.883, -163.528
89.797, 65.014, -164.018
91.103, 64.951, -165.772
92.428, 64.884, -165.664
93.773, 64.895, -166.567
95.137, 64.716, -166.739
96.520, 64.891, -166.685
97.924, 64.889, -168.221
99.349, 64.503, -170.209
100.794, 64.758, -167.361
102.260, 64.378, -171.712
103.747, 64.484, -169.430
105.256, 64.341, -169.557
106.787, 64.603, -170.609
108.340, 64.405, -171.614
109.916, 64.435, -169.922
111.515, 64.412, -172.946
113.137, 64.219, -172.190
114.783, 64.248, -173.004
116.452, 64.039, -174.017
118.146, 64.115, -173.727
119.865, 63.988, -173.792
121.608, 63.938, -172.779
123.377, 64.026, -173.764
125.171, 64.111, -174.030
126.992, 63.942, -174.754
128.839, 63.899, -175.935
130.713, 63.848, -176.612
132.615, 63.932, -176.053
134.543, 63.886, -175.803
136.500, 63.746, -176.872
138.486, 63.786, -177.307
140.500, 63.605, -176.535
142.544, 63.582, -176.827
144.617, 63.539, -177.944
146.721, 63.606, -178.799
148.855, 63.436, -178.087
151.020, 63.512, -178.308
153.217, 63.362, -179.149
155.445, 63.424, -179.113
157.706, 63.413, -178.313
160.000, 63.288, -178.666
162.327, 63.446, 179.887
164.688, 63.368, 179.275
167.084, 63.536, -179.338
169.514, 63.220, 179.427
171.980, 63.150, 179.657
174.481, 63.327, 176.835
177.019, 63.144, 176.800
179.594, 63.180, 179.410
182.206, 62.972, 178.463
184.856, 63.059, 176.583
187.545, 63.047, 176.916
190.273, 62.924, 176.988
193.041, 62.895, 176.074
195.849, 62.765, 175.805
198.697, 62.700, 176.854
201.587, 62.531, 175.307
204.520, 62.419, 175.562
207.494, 62.460, 176.606
210.512, 62.341, 176.469
213.574, 62.274, 175.817
216.681, 62.234, 175.279
219.833, 62.115, 174.409
223.030, 62.020, 174.933
226.274, 61.863, 175.145
229.565, 61.874, 175.249
232.905, 61.439, 177.777
236.292, 61.763, 175.448
239.729, 61.572, 174.549
243.216, 61.555, 175.542
246.754, 61.441, 175.995
250.343, 61.430, 174.746
253.984, 61.236, 175.366
257.678, 61.039, 174.923
261.426, 61.030, 174.998
265.229, 60.952, 176.528
269.087, 60.887, 177.148
273.001, 60.814, 177.144
276.972, 60.665, 178.973
281.000, 60.651, 179.105
285.088, 60.735, -179.976
289.234, 60.682, -178.730
293.441, 60.917, 179.389
297.710, 60.937, -177.683
302.040, 60.978, -178.404
306.433, 60.838, -178.618
310.890, 60.821, -178.685
315.412, 60.803, -178.626
320.000, 60.882, -178.752
324.655, 60.901, -178.941
329.377, 60.827, -178.561
334.168, 60.708, -177.847
339.028, 60.811, -178.571
343.959, 60.941, -179.875
348.962, 60.936, 177.149
354.038, 60.811, -178.735
359.188, 60.686, -178.744
364.412, 60.566, -178.750
369.713, 60.505, -179.131
375.090, 60.420, -179.673
380.546, 60.233, -179.128
386.081, 60.098, -178.785
391.697, 59.975, -178.410
397.395, 59.870, -178.055
403.175, 59.674, -177.512
409.039, 59.548, -176.639
414.989, 59.416, -174.915
421.025, 59.408, -174.194
427.149, 59.352, -173.187
433.362, 59.307, -172.063
439.665, 59.263, -170.867
446.060, 59.288, -170.116
452.548, 59.181, -169.052
459.131, 59.205, -167.942
465.809, 59.119, -167.020
472.584, 59.213, -165.336
479.458, 59.156, -164.290
486.432, 59.253, -163.183
493.507, 59.299, -161.761
500.686, 59.408, -160.472
507.968, 59.549, -159.173
515.357, 59.602, -158.917
522.853, 59.760, -157.396
530.458, 59.965, -156.549
538.174, 60.134, -156.159
546.002, 60.284, -155.768
553.943, 60.519, -155.483
562.001, 60.651, -155.827
570.175, 60.791, -156.167
578.469, 60.841, -156.997
586.883, 60.844, -157.889
595.419, 60.781, -157.945
604.080, 60.662, -158.229
612.866, 60.495, -157.345
621.780, 60.480, -156.056
630.824, 60.519, -154.571
640.000, 60.714, -153.519
649.309, 60.679, -153.958
658.753, 60.571, -152.737
668.335, 60.610, -151.837
678.056, 60.737, -150.938
687.919, 60.839, -149.513
697.925, 60.863, -148.989
708.076, 61.055, -147.927
718.376, 61.170, -146.986
728.825, 61.267, -146.251
739.426, 61.521, -145.930
750.181, 61.606, -145.211
761.093, 61.791, -145.037
772.163, 61.949, -144.802
783.394, 62.048, -144.852
794.789, 62.218, -144.377
806.349, 62.332, -144.306
818.078, 62.479, -144.187
829.977, 62.566, -144.329
842.050, 62.614, -143.765
854.297, 62.687, -143.279
866.724, 62.824, -143.077
879.330, 62.946, -142.550
892.120, 63.132, -142.323
905.097, 63.268, -141.902
918.262, 63.394, -141.858
931.618, 63.570, -141.674
945.169, 63.683, -141.772
958.917, 63.847, -141.785
972.864, 63.969, -141.702
987.015, 64.122, -141.885
1001.371, 64.282, -142.111
1015.937, 64.372, -142.326
1030.714, 64.500, -142.714
1045.706, 64.623, -142.628
1060.916, 64.722, -142.871
1076.347, 64.864, -143.243
1092.003, 64.927, -143.618
1107.887, 64.992, -143.939
1124.001, 65.025, -144.190
1140.350, 65.049, -143.960
1156.937, 65.102, -143.412
1173.765, 65.229, -142.923
1190.838, 65.345, -142.748
1208.159, 65.472, -142.724
1225.732, 65.558, -142.472
1243.561, 65.695, -141.760
1261.649, 65.860, -141.275
1280.000, 66.073, -141.016
1298.618, 66.275, -140.905
1317.507, 66.503, -140.770
1336.670, 66.714, -140.915
1356.113, 66.954, -140.975
1375.838, 67.201, -141.119
1395.850, 67.477, -141.580
1416.153, 67.786, -142.390
1436.751, 68.033, -143.706
1457.649, 68.249, -145.004
1478.851, 68.349, -146.253
1500.362, 68.464, -147.478
1522.185, 68.564, -148.314
1544.326, 68.649, -148.595
1566.789, 68.898, -148.896
1589.578, 69.167, -150.065
1612.699, 69.453, -151.770
1636.156, 69.603, -154.076
1659.955, 69.683, -155.811
1684.099, 69.827, -158.081
1708.595, 69.852, -160.826
1733.447, 69.727, -163.287
1758.661, 69.471, -164.888
1784.241, 69.235, -165.328
1810.193, 69.160, -165.425
1836.523, 69.138, -165.450
1863.236, 69.169, -166.233
1890.338, 69.104, -167.050
1917.833, 68.990, -167.226
1945.729, 68.999, -166.879
1974.030, 69.094, -167.262
2002.743, 69.057, -167.732
2031.873, 69.054, -167.501
2061.428, 69.058, -167.351
2091.412, 69.193, -166.761
2121.832, 69.397, -166.705
2152.695, 69.598, -166.886
2184.007, 69.909, -167.326
2215.774, 70.322, -169.008
2248.003, 70.551, -172.155
2280.701, 70.516, -175.433
2313.874, 70.349, -177.405
2347.530, 70.257, -178.534
2381.676, 70.140, -179.849
2416.318, 70.033, 179.848
2451.464, 70.193, -179.939
2487.122, 70.437, 177.967
2523.298, 70.463, 175.398
2560.000, 70.425, 173.299
2597.236, 70.311, 170.835
2635.014, 70.117, 169.272
2673.341, 70.089, 168.024
2712.226, 70.049, 164.898
2751.676, 69.599, 161.015
2791.700, 68.783, 160.729
2832.306, 68.559, 163.326
2873.503, 68.619, 162.603
2915.299, 68.239, 161.083
2957.703, 67.797, 162.941
3000.724, 67.858, 164.919
3044.370, 68.038, 164.593
3088.652, 67.952, 163.389
3133.577, 67.746, 162.809
3179.156, 67.527, 163.051
3225.398, 67.484, 164.500
3272.312, 67.693, 164.694
3319.909, 67.851, 162.373
3368.198, 67.474, 159.724
3417.190, 67.043, 160.534
3466.894, 67.018, 161.598
3517.321, 66.946, 160.601
3568.482, 66.585, 160.494
3620.387, 66.359, 162.330
3673.046, 66.415, 164.084
3726.472, 66.549, 163.947
3780.675, 66.484, 164.006
3835.666, 66.565, 164.104
3891.457, 66.615, 162.938
3948.060, 66.455, 161.654
4005.486, 66.214, 161.023
4063.747, 65.865, 160.573
4122.855, 65.426, 161.982
4182.824, 65.234, 164.997
4243.664, 65.333, 167.592
4305.390, 65.533, 168.555
4368.013, 65.548, 168.619
4431.547, 65.474, 169.778
4496.005, 65.484, 171.479
4561.401, 65.571, 173.372
4627.749, 65.816, 175.359
4695.061, 66.151, 176.591
4763.352, 66.492, 176.861
4832.637, 66.759, 177.269
4902.929, 67.176, 177.879
4974.244, 67.641, 176.988
5046.596, 67.912, 175.150
5120.000, 68.098, 174.554
5194.472, 68.446, 173.928
5270.027, 68.810, 172.379
5346.682, 69.170, 170.703
5424.451, 69.526, 168.398
5503.352, 69.854, 165.817
5583.399, 70.222, 162.592
5664.612, 70.554, 158.475
5747.006, 70.750, 153.157
5830.598, 70.730, 147.499
5915.406, 70.523, 142.130
6001.447, 70.198, 137.194
6088.740, 69.786, 132.720
6177.303, 69.296, 128.495
6267.154, 68.657, 124.837
6358.312, 67.919, 122.064
6450.796, 67.142, 120.529
6544.625, 66.430, 120.282
6639.818, 65.806, 120.366
6736.397, 65.237, 121.142
6834.380, 64.768, 122.367
6933.789, 64.388, 123.759
7034.643, 64.142, 125.246
7136.964, 63.988, 126.130
7240.773, 63.795, 126.683
7346.093, 63.622, 127.592
7452.944, 63.498, 128.732
7561.350, 63.539, 129.975
7671.332, 63.724, 131.178
7782.915, 64.157, 131.252
7896.120, 64.748, 129.697
8010.971, 65.489, 125.297
8127.493, 66.082, 116.781
8245.711, 66.103, 105.449
8365.647, 65.512, 93.724
8487.328, 64.464, 83.482
8610.779, 63.299, 74.614
8736.026, 62.260, 63.196
8863.095, 60.472, 51.396
8992.011, 58.567, 37.261
9122.803, 56.284, 19.174
9255.497, 53.831, -7.340
9390.121, 52.224, -43.504
9526.704, 52.379, -82.040
9665.273, 53.847, -110.309
9805.857, 55.228, -130.634
9948.487, 56.056, -145.343
10093.191, 56.481, -156.411
10240.000, 56.428, -163.671
10388.944, 56.188, -168.327
10540.055, 55.912, -170.539
10693.363, 55.291, -171.844
10848.902, 54.583, -163.524
11006.703, 56.131, -154.327
11166.799, 57.856, -158.411
11329.224, 58.418, -166.475
11494.012, 58.114, -174.210
11661.195, 57.087, -178.405
11830.812, 55.625, -175.128
12002.895, 55.091, -163.054
12177.480, 56.082, -151.668
12354.606, 57.862, -146.768
12534.309, 59.581, -147.432
12716.624, 61.094, -152.413
12901.592, 62.179, -159.047
13089.250, 63.174, -167.109
13279.637, 64.043, -178.475
13472.794, 64.336, 167.248
13668.760, 63.988, 152.866
13867.577, 63.531, 139.167
14069.285, 63.127, 122.136
14273.928, 62.232, 98.500
14481.547, 60.528, 71.672
14692.186, 58.901, 43.711
14905.889, 58.730, 17.160
15122.700, 60.283, -9.658
15342.664, 62.480, -35.561
15565.829, 64.403, -59.798
15792.239, 65.700, -82.189
16021.942, 66.162, -101.263
16254.986, 66.093, -115.089
16491.422, 66.195, -122.783
16731.295, 67.131, -130.138
16974.656, 68.220, -142.718
17221.559, 68.939, -161.467
17472.053, 67.744, 175.561
17726.189, 64.932, 164.401
17984.021, 62.864, 164.969
18245.605, 61.817, 165.741
18510.994, 60.317, 166.406
18780.242, 59.999, -178.734
19053.408, 62.398, 178.002
19330.547, 62.481, 162.999
19611.715, 61.247, 154.357
19896.975, 60.329, 151.525
