* Measurement data measured by REW V5.19
* Source: In 1-2 (MOTU M Series), no input selected, L, volume: no control
* Format: 1M Log Swept Sine, 1 sweep at -3.0 dBFS  With no timing reference
* Dated: 23 Sep, 2020 5:15:51 PM
* REW Settings:
*  C-weighting compensation: Off
*  Target level: 75.0 dB
* Note: ; 
* Measurement: Sep 23 17:15:51
* Smoothing: None
* Frequency Step: 1/48 octave
* Start Frequency: 10.0 Hz
*
* Freq(Hz), SPL(dB), Phase(degrees)
10.145, 69.833, 98.348
10.293, 69.921, 96.938
10.443, 70.011, 95.655
10.595, 70.100, 94.378
10.749, 70.188, 93.093
10.905, 70.276, 91.806
11.064, 70.359, 90.516
11.225, 70.439, 89.221
11.388, 70.513, 87.944
11.554, 70.580, 86.685
11.722, 70.643, 85.462
11.892, 70.701, 84.293
12.065, 70.758, 83.174
12.241, 70.817, 82.118
12.419, 70.880, 81.111
12.599, 70.952, 80.134
12.782, 71.031, 79.175
12.968, 71.120, 78.187
13.157, 71.215, 77.165
13.348, 71.314, 76.067
13.543, 71.412, 74.902
13.740, 71.504, 73.660
13.939, 71.586, 72.369
14.142, 71.654, 71.045
14.348, 71.709, 69.737
14.557, 71.750, 68.464
14.768, 71.784, 67.264
14.983, 71.813, 66.142
15.201, 71.846, 65.099
15.422, 71.884, 64.107
15.646, 71.932, 63.144
15.874, 71.989, 62.156
16.105, 72.052, 61.127
16.339, 72.117, 60.027
16.577, 72.176, 58.868
16.818, 72.228, 57.657
17.063, 72.268, 56.429
17.311, 72.296, 55.212
17.563, 72.314, 54.028
17.818, 72.325, 52.896
18.077, 72.331, 51.816
18.340, 72.334, 50.787
18.607, 72.336, 49.800
18.877, 72.336, 48.855
19.152, 72.333, 47.958
19.431, 72.328, 47.121
19.713, 72.323, 46.360
20.000, 72.324, 45.683
20.291, 72.335, 45.080
20.586, 72.362, 44.524
20.885, 72.409, 43.965
21.189, 72.478, 43.329
21.497, 72.561, 42.538
21.810, 72.644, 41.546
22.127, 72.714, 40.357
22.449, 72.754, 39.031
22.776, 72.756, 37.681
23.107, 72.724, 36.445
23.443, 72.675, 35.434
23.784, 72.633, 34.659
24.130, 72.621, 34.009
24.481, 72.641, 33.296
24.837, 72.676, 32.372
25.198, 72.695, 31.221
25.565, 72.676, 29.979
25.937, 72.616, 28.855
26.314, 72.538, 28.008
26.697, 72.477, 27.433
27.085, 72.452, 26.958
27.479, 72.458, 26.373
27.879, 72.467, 25.586
28.284, 72.453, 24.678
28.696, 72.410, 23.816
29.113, 72.355, 23.118
29.537, 72.310, 22.558
29.966, 72.283, 22.008
30.402, 72.263, 21.356
30.844, 72.232, 20.587
31.293, 72.176, 19.768
31.748, 72.093, 19.006
32.210, 71.988, 18.388
32.678, 71.874, 17.962
33.154, 71.763, 17.727
33.636, 71.662, 17.644
34.125, 71.573, 17.689
34.621, 71.498, 17.890
35.125, 71.450, 18.275
35.636, 71.451, 18.760
36.154, 71.506, 19.145
36.680, 71.589, 19.272
37.214, 71.672, 19.180
37.755, 71.749, 19.010
38.304, 71.834, 18.790
38.861, 71.923, 18.430
39.427, 71.999, 17.928
40.000, 72.057, 17.430
40.582, 72.117, 16.990
41.172, 72.189, 16.462
41.771, 72.250, 15.787
42.379, 72.290, 15.113
42.995, 72.332, 14.505
43.620, 72.383, 13.847
44.255, 72.435, 13.133
44.898, 72.509, 12.344
45.552, 72.594, 11.114
46.214, 72.598, 9.380
46.886, 72.472, 7.922
47.568, 72.333, 7.277
48.260, 72.263, 6.761
48.962, 72.165, 6.055
49.674, 72.033, 5.870
50.397, 71.994, 6.060
51.130, 72.012, 5.730
51.874, 71.965, 5.170
52.628, 71.899, 4.998
53.394, 71.873, 4.948
54.170, 71.860, 4.892
54.958, 71.879, 4.939
55.758, 71.937, 4.750
56.569, 71.970, 4.358
57.391, 72.010, 4.129
58.226, 72.090, 3.582
59.073, 72.092, 2.656
59.932, 72.044, 2.333
60.804, 72.093, 2.064
61.688, 72.103, 1.135
62.586, 72.029, 0.557
63.496, 71.997, 0.242
64.420, 71.965, -0.235
65.357, 71.934, -0.587
66.307, 71.932, -1.046
67.272, 71.917, -1.755
68.250, 71.858, -2.349
69.243, 71.819, -2.650
70.250, 71.793, -3.030
71.272, 71.766, -3.197
72.309, 71.794, -3.542
73.360, 71.758, -4.339
74.427, 71.663, -4.637
75.510, 71.638, -4.738
76.608, 71.633, -5.066
77.723, 71.636, -5.572
78.853, 71.576, -6.056
80.000, 71.539, -5.949
81.164, 71.536, -6.115
82.344, 71.491, -6.146
83.542, 71.461, -6.347
84.757, 71.429, -6.484
85.990, 71.365, -7.381
87.241, 71.282, -6.992
88.510, 71.329, -7.846
89.797, 71.292, -7.767
91.103, 71.265, -8.507
92.428, 71.257, -8.402
93.773, 71.121, -8.691
95.137, 71.111, -8.015
96.520, 71.292, -7.599
97.924, 71.226, -9.007
99.349, 71.453, -8.480
100.794, 71.266, -10.857
102.260, 71.201, -10.272
103.747, 71.104, -10.654
105.256, 71.122, -10.512
106.787, 71.078, -10.692
108.340, 71.157, -11.136
109.916, 70.964, -11.210
111.515, 71.025, -11.282
113.137, 71.006, -12.064
114.783, 70.909, -12.153
116.452, 70.963, -12.528
118.146, 70.930, -12.137
119.865, 70.880, -12.233
121.608, 70.904, -11.984
123.377, 70.748, -13.116
125.171, 70.840, -12.261
126.992, 70.805, -12.926
128.839, 70.776, -12.844
130.713, 70.757, -13.400
132.615, 70.860, -13.886
134.543, 70.824, -13.968
136.500, 70.900, -14.232
138.486, 70.913, -13.791
140.500, 70.842, -14.298
142.544, 70.766, -14.871
144.617, 70.852, -14.228
146.721, 70.763, -14.463
148.855, 70.825, -14.738
151.020, 70.837, -14.849
153.217, 70.824, -15.712
155.445, 70.850, -14.740
157.706, 70.859, -15.796
160.000, 70.829, -15.758
162.327, 70.840, -15.522
164.688, 70.752, -16.414
167.084, 70.679, -16.615
169.514, 70.790, -16.723
171.980, 70.805, -17.079
174.481, 70.847, -16.932
177.019, 70.921, -17.118
179.594, 70.917, -17.478
182.206, 71.068, -17.901
184.856, 70.943, -18.417
187.545, 71.127, -19.040
190.273, 71.216, -18.898
193.041, 71.160, -19.619
195.849, 71.127, -20.174
198.697, 71.292, -20.527
201.587, 71.251, -21.124
204.520, 71.206, -21.500
207.494, 71.315, -22.239
210.512, 71.315, -22.355
213.574, 71.311, -23.125
216.681, 71.319, -24.060
219.833, 71.327, -24.827
223.030, 71.326, -25.241
226.274, 71.333, -26.270
229.565, 71.380, -26.966
232.905, 71.344, -27.153
236.292, 71.359, -27.980
239.729, 71.382, -29.014
243.216, 71.304, -30.223
246.754, 71.322, -30.835
250.343, 71.216, -32.077
253.984, 71.244, -33.108
257.678, 71.200, -34.197
261.426, 71.136, -34.859
265.229, 71.030, -35.685
269.087, 71.014, -36.018
273.001, 71.010, -36.879
276.972, 70.923, -38.145
281.000, 70.886, -39.229
285.088, 70.790, -39.956
289.234, 70.667, -41.022
293.441, 70.555, -42.018
297.710, 70.447, -42.925
302.040, 70.235, -44.279
306.433, 70.135, -44.427
310.890, 69.913, -45.375
315.412, 69.721, -45.936
320.000, 69.531, -46.455
324.655, 69.332, -46.573
329.377, 69.187, -46.968
334.168, 69.009, -46.408
339.028, 68.850, -46.585
343.959, 68.722, -46.423
348.962, 68.555, -46.549
354.038, 68.468, -46.431
359.188, 68.319, -45.878
364.412, 68.260, -46.252
369.713, 68.193, -45.997
375.090, 68.035, -46.023
380.546, 67.905, -46.088
386.081, 67.858, -45.145
391.697, 67.743, -45.751
397.395, 67.694, -45.637
403.175, 67.603, -45.402
409.039, 67.462, -45.447
414.989, 67.383, -44.927
421.025, 67.294, -45.471
427.149, 67.157, -45.057
433.362, 67.084, -44.335
439.665, 66.963, -43.508
446.060, 66.888, -43.217
452.548, 66.794, -42.829
459.131, 66.727, -42.111
465.809, 66.618, -41.373
472.584, 66.676, -40.540
479.458, 66.721, -39.818
486.432, 66.693, -39.455
493.507, 66.709, -38.928
500.686, 66.840, -38.693
507.968, 66.975, -38.100
515.357, 67.037, -38.453
522.853, 67.106, -38.322
530.458, 67.182, -38.812
538.174, 67.226, -39.478
546.002, 67.252, -39.752
553.943, 67.366, -39.906
562.001, 67.255, -41.172
570.175, 67.244, -42.028
578.469, 67.169, -42.453
586.883, 67.068, -42.471
595.419, 66.841, -42.804
604.080, 66.840, -43.847
612.866, 66.634, -44.849
621.780, 66.596, -44.371
630.824, 66.460, -43.019
640.000, 66.300, -43.146
649.309, 66.211, -42.562
658.753, 66.124, -42.343
668.335, 66.039, -40.712
678.056, 66.044, -39.404
687.919, 66.048, -38.827
697.925, 66.041, -38.564
708.076, 66.112, -37.818
718.376, 66.022, -37.412
728.825, 66.235, -36.750
739.426, 66.228, -35.082
750.181, 66.325, -35.078
761.093, 66.412, -34.932
772.163, 66.581, -34.632
783.394, 66.626, -34.075
794.789, 66.692, -33.662
806.349, 66.833, -33.732
818.078, 66.914, -33.712
829.977, 67.058, -33.039
842.050, 67.233, -33.191
854.297, 67.351, -32.979
866.724, 67.549, -33.168
879.330, 67.676, -33.505
892.120, 67.862, -33.862
905.097, 68.027, -34.622
918.262, 68.172, -35.600
931.618, 68.280, -36.692
945.169, 68.312, -37.878
958.917, 68.310, -38.862
972.864, 68.291, -39.612
987.015, 68.274, -40.005
1001.371, 68.256, -40.451
1015.937, 68.266, -40.621
1030.714, 68.272, -40.854
1045.706, 68.274, -41.238
1060.916, 68.276, -41.079
1076.347, 68.316, -40.874
1092.003, 68.355, -40.813
1107.887, 68.452, -40.294
1124.001, 68.580, -40.019
1140.350, 68.765, -39.986
1156.937, 68.952, -40.139
1173.765, 69.150, -40.851
1190.838, 69.316, -41.718
1208.159, 69.461, -42.540
1225.732, 69.567, -43.519
1243.561, 69.630, -44.365
1261.649, 69.708, -45.298
1280.000, 69.794, -45.997
1298.618, 69.875, -46.784
1317.507, 69.926, -47.427
1336.670, 70.015, -48.118
1356.113, 70.118, -48.666
1375.838, 70.214, -49.272
1395.850, 70.337, -49.989
1416.153, 70.471, -50.847
1436.751, 70.630, -51.738
1457.649, 70.767, -52.979
1478.851, 70.870, -54.358
1500.362, 70.935, -55.843
1522.185, 70.973, -57.282
1544.326, 70.976, -58.554
1566.789, 70.975, -59.860
1589.578, 70.948, -60.859
1612.699, 70.896, -61.725
1636.156, 70.822, -62.093
1659.955, 70.791, -62.076
1684.099, 70.842, -61.474
1708.595, 71.137, -60.978
1733.447, 71.427, -62.128
1758.661, 71.599, -64.069
1784.241, 71.640, -65.665
1810.193, 71.651, -66.802
1836.523, 71.676, -67.658
1863.236, 71.710, -68.361
1890.338, 71.800, -68.857
1917.833, 71.901, -69.367
1945.729, 72.049, -69.944
1974.030, 72.183, -70.748
2002.743, 72.378, -71.684
2031.873, 72.534, -72.739
2061.428, 72.692, -74.100
2091.412, 72.826, -75.517
2121.832, 72.931, -76.898
2152.695, 73.025, -78.169
2184.007, 73.117, -79.327
2215.774, 73.208, -80.539
2248.003, 73.290, -81.445
2280.701, 73.423, -82.204
2313.874, 73.592, -82.970
2347.530, 73.791, -84.011
2381.676, 73.999, -85.238
2416.318, 74.198, -86.439
2451.464, 74.428, -87.738
2487.122, 74.643, -88.987
2523.298, 74.914, -90.263
2560.000, 75.202, -91.708
2597.236, 75.538, -93.432
2635.014, 75.905, -95.405
2673.341, 76.303, -97.662
2712.226, 76.742, -100.477
2751.676, 77.199, -104.346
2791.700, 77.509, -109.195
2832.306, 77.672, -114.078
2873.503, 77.758, -118.635
2915.299, 77.798, -123.046
2957.703, 77.831, -127.365
3000.724, 77.859, -131.801
3044.370, 77.847, -136.441
3088.652, 77.775, -141.452
3133.577, 77.634, -146.614
3179.156, 77.344, -151.525
3225.398, 76.959, -156.284
3272.312, 76.551, -160.552
3319.909, 76.025, -164.736
3368.198, 75.315, -167.862
3417.190, 74.560, -168.447
3466.894, 74.245, -167.229
3517.321, 74.303, -168.056
3568.482, 74.189, -170.912
3620.387, 73.899, -173.762
3673.046, 73.487, -176.103
3726.472, 73.013, -177.076
3780.675, 72.727, -177.345
3835.666, 72.573, -178.268
3891.457, 72.319, -179.866
3948.060, 72.001, 179.443
4005.486, 71.822, 179.274
4063.747, 71.728, 178.449
4122.855, 71.527, 177.144
4182.824, 71.298, 176.695
4243.664, 71.202, 176.984
4305.390, 71.301, 176.480
4368.013, 71.341, 174.878
4431.547, 71.349, 173.310
4496.005, 71.344, 171.511
4561.401, 71.303, 169.014
4627.749, 71.123, 167.007
4695.061, 71.036, 165.738
4763.352, 70.983, 163.870
4832.637, 70.980, 161.997
4902.929, 70.905, 159.150
4974.244, 70.734, 157.076
5046.596, 70.804, 155.031
5120.000, 70.888, 151.290
5194.472, 70.789, 146.411
5270.027, 70.532, 140.882
5346.682, 69.975, 135.657
5424.451, 69.397, 130.941
5503.352, 68.477, 124.848
5583.399, 67.205, 122.693
5664.612, 66.069, 119.548
5747.006, 64.359, 120.040
5830.598, 63.031, 124.971
5915.406, 62.138, 130.112
6001.447, 61.270, 135.119
6088.740, 60.537, 142.697
6177.303, 60.231, 149.365
6267.154, 59.684, 157.815
6358.312, 60.252, 168.796
6450.796, 60.454, 172.193
6544.625, 60.850, -176.029
6639.818, 62.676, -170.193
6736.397, 63.669, -170.026
6834.380, 65.237, -165.650
6933.789, 67.163, -176.704
7034.643, 66.644, 174.779
7136.964, 66.560, 172.225
7240.773, 64.666, 170.131
7346.093, 66.772, -170.627
7452.944, 68.146, -179.177
7561.350, 68.220, 179.142
7671.332, 68.913, 178.967
7782.915, 70.739, 178.478
7896.120, 71.831, 169.047
8010.971, 72.467, 159.345
8127.493, 72.454, 150.940
8245.711, 72.935, 145.110
8365.647, 73.354, 135.203
8487.328, 73.652, 125.139
8610.779, 73.740, 111.848
8736.026, 73.569, 94.548
8863.095, 72.147, 77.582
8992.011, 69.994, 61.714
9122.803, 67.457, 49.206
9255.497, 64.394, 38.445
9390.121, 61.446, 28.067
9526.704, 57.930, 5.098
9665.273, 54.001, -40.049
9805.857, 54.410, -100.669
9948.487, 57.191, -130.083
10093.191, 59.699, -142.479
10240.000, 61.857, -148.578
10388.944, 64.240, -153.819
10540.055, 66.598, -162.608
10693.363, 68.644, -179.321
10848.902, 68.704, 158.391
11006.703, 66.960, 145.705
11166.799, 65.288, 145.986
11329.224, 64.638, 148.963
11494.012, 64.539, 152.319
11661.195, 64.862, 155.254
11830.812, 65.313, 156.175
12002.895, 65.938, 158.205
12177.480, 67.234, 156.360
12354.606, 68.204, 150.280
12534.309, 69.202, 142.702
12716.624, 70.054, 128.167
12901.592, 69.820, 109.760
13089.250, 68.306, 91.368
13279.637, 65.730, 76.835
13472.794, 62.512, 65.978
13668.760, 58.479, 57.041
13867.577, 52.254, 42.191
14069.285, 42.165, -79.762
14273.928, 54.495, -132.800
14481.547, 59.946, -146.969
14692.186, 63.662, -162.826
14905.889, 65.450, 175.705
15122.700, 65.528, 155.795
15342.664, 64.348, 138.497
15565.829, 61.828, 128.967
15792.239, 59.312, 129.807
16021.942, 57.153, 134.699
16254.986, 53.994, 143.015
16491.422, 50.937, -170.778
16731.295, 57.821, -138.923
16974.656, 62.289, -146.825
17221.559, 65.258, -167.740
17472.053, 66.236, 170.257
17726.189, 64.616, 152.090
17984.021, 60.687, 145.391
18245.605, 56.922, -178.192
18510.994, 63.861, -173.606
18780.242, 62.801, -176.105
19053.408, 62.425, 143.230
19330.547, 62.745, 128.778
19611.715, 58.685, 110.614
19896.975, 54.582, 155.417
