* Measurement data measured by REW V5.19
* Source: In 1-2 (MOTU M Series), no input selected, L, volume: no control
* Format: 1M Log Swept Sine, 1 sweep at -3.0 dBFS  With no timing reference
* Dated: 23 Sep, 2020 5:04:22 PM
* REW Settings:
*  C-weighting compensation: Off
*  Target level: 75.0 dB
* Note: ; 
* Measurement: Sep 23 17:04:22
* Smoothing: None
* Frequency Step: 1/48 octave
* Start Frequency: 10.0 Hz
*
* Freq(Hz), SPL(dB), Phase(degrees)
10.145, 67.329, 62.658
10.293, 67.352, 61.689
10.443, 67.385, 60.835
10.595, 67.423, 59.984
10.749, 67.468, 59.109
10.905, 67.517, 58.214
11.064, 67.566, 57.274
11.225, 67.614, 56.288
11.388, 67.656, 55.273
11.554, 67.690, 54.223
11.722, 67.715, 53.172
11.892, 67.728, 52.141
12.065, 67.733, 51.143
12.241, 67.731, 50.212
12.419, 67.725, 49.338
12.599, 67.722, 48.525
12.782, 67.721, 47.754
12.968, 67.729, 46.979
13.157, 67.740, 46.187
13.348, 67.752, 45.316
13.543, 67.759, 44.378
13.740, 67.751, 43.351
13.939, 67.723, 42.295
14.142, 67.667, 41.237
14.348, 67.586, 40.289
14.557, 67.479, 39.495
14.768, 67.368, 38.948
14.983, 67.258, 38.647
15.201, 67.179, 38.563
15.422, 67.136, 38.568
15.646, 67.140, 38.557
15.874, 67.173, 38.330
16.105, 67.225, 37.849
16.339, 67.265, 37.061
16.577, 67.275, 36.106
16.818, 67.246, 35.068
17.063, 67.179, 34.178
17.311, 67.100, 33.518
17.563, 67.028, 33.137
17.818, 66.999, 32.943
18.077, 67.018, 32.711
18.340, 67.078, 32.301
18.607, 67.152, 31.563
18.877, 67.204, 30.596
19.152, 67.226, 29.593
19.431, 67.225, 28.743
19.713, 67.238, 28.219
20.000, 67.318, 27.859
20.291, 67.480, 27.284
20.586, 67.699, 26.120
20.885, 67.911, 24.095
21.189, 68.022, 21.286
21.497, 67.960, 18.199
21.810, 67.707, 15.547
22.127, 67.313, 14.101
22.449, 66.905, 14.383
22.776, 66.663, 16.233
23.107, 66.722, 18.515
23.443, 67.027, 19.684
23.784, 67.372, 19.088
24.130, 67.577, 17.201
24.481, 67.566, 14.991
24.837, 67.371, 13.417
25.198, 67.109, 13.048
25.565, 66.921, 13.734
25.937, 66.881, 14.690
26.314, 66.946, 15.123
26.697, 67.017, 14.797
27.085, 67.021, 13.984
27.479, 66.944, 13.069
27.879, 66.804, 12.274
28.284, 66.618, 11.672
28.696, 66.390, 11.361
29.113, 66.141, 11.527
29.537, 65.925, 12.242
29.966, 65.794, 13.222
30.402, 65.742, 13.986
30.844, 65.703, 14.334
31.293, 65.621, 14.542
31.748, 65.503, 15.062
32.210, 65.407, 16.051
32.678, 65.375, 17.303
33.154, 65.398, 18.622
33.636, 65.469, 20.030
34.125, 65.613, 21.502
34.621, 65.846, 22.740
35.125, 66.129, 23.419
35.636, 66.403, 23.593
36.154, 66.656, 23.528
36.680, 66.914, 23.271
37.214, 67.178, 22.598
37.755, 67.398, 21.417
38.304, 67.533, 20.018
38.861, 67.601, 18.837
39.427, 67.670, 17.980
40.000, 67.779, 17.103
40.582, 67.902, 15.861
41.172, 67.979, 14.304
41.771, 67.998, 12.754
42.379, 67.991, 11.364
42.995, 67.972, 9.996
43.620, 67.918, 8.631
44.255, 67.828, 7.449
44.898, 67.724, 6.413
45.552, 67.573, 5.431
46.214, 67.350, 5.000
46.886, 67.171, 5.603
47.568, 67.167, 6.292
48.260, 67.186, 5.993
48.962, 67.059, 5.720
49.674, 66.950, 6.625
50.397, 67.037, 7.484
51.130, 67.120, 7.206
51.874, 67.057, 7.145
52.628, 67.065, 8.072
53.394, 67.243, 8.476
54.170, 67.370, 7.780
54.958, 67.364, 7.268
55.758, 67.411, 7.470
56.569, 67.599, 7.045
57.391, 67.686, 5.283
58.226, 67.542, 4.012
59.073, 67.461, 4.059
59.932, 67.500, 3.626
60.804, 67.468, 3.115
61.688, 67.521, 2.830
62.586, 67.531, 1.647
63.496, 67.420, 1.319
64.420, 67.476, 1.294
65.357, 67.484, 0.398
66.307, 67.441, 0.030
67.272, 67.425, -0.556
68.250, 67.339, -0.762
69.243, 67.360, -0.706
70.250, 67.367, -1.390
71.272, 67.278, -1.791
72.309, 67.245, -1.574
73.360, 67.293, -1.902
74.427, 67.211, -2.345
75.510, 67.212, -1.872
76.608, 67.277, -2.548
77.723, 67.168, -2.887
78.853, 67.189, -2.800
80.000, 67.174, -3.156
81.164, 67.234, -3.415
82.344, 67.175, -3.894
83.542, 67.227, -3.539
84.757, 67.182, -3.576
85.990, 67.275, -3.319
87.241, 67.090, -3.512
88.510, 67.236, -3.062
89.797, 67.136, -4.870
91.103, 66.954, -6.688
92.428, 66.639, -4.961
93.773, 66.977, -5.238
95.137, 67.152, -4.546
96.520, 67.300, -6.736
97.924, 67.220, -6.730
99.349, 67.035, -6.126
100.794, 67.094, -7.137
102.260, 66.926, -5.844
103.747, 67.033, -7.967
105.256, 66.923, -7.887
106.787, 66.913, -8.279
108.340, 66.955, -8.251
109.916, 66.983, -8.347
111.515, 66.835, -8.402
113.137, 66.910, -7.534
114.783, 67.055, -8.361
116.452, 66.658, -9.557
118.146, 66.904, -9.793
119.865, 66.708, -8.846
121.608, 66.895, -10.451
123.377, 66.910, -11.396
125.171, 66.691, -11.148
126.992, 66.742, -10.293
128.839, 66.709, -10.376
130.713, 66.764, -10.647
132.615, 66.734, -9.271
134.543, 66.723, -10.869
136.500, 66.706, -12.143
138.486, 66.879, -11.329
140.500, 66.784, -11.570
142.544, 66.810, -11.962
144.617, 66.723, -12.295
146.721, 66.728, -13.091
148.855, 66.756, -13.197
151.020, 66.737, -13.586
153.217, 66.693, -13.845
155.445, 66.643, -14.196
157.706, 66.757, -13.714
160.000, 66.741, -14.344
162.327, 66.745, -14.699
164.688, 66.709, -15.059
167.084, 66.586, -15.954
169.514, 66.593, -16.909
171.980, 66.516, -17.626
174.481, 66.553, -17.643
177.019, 66.349, -17.852
179.594, 66.477, -19.068
182.206, 66.559, -19.622
184.856, 66.486, -19.329
187.545, 66.373, -19.878
190.273, 66.237, -20.564
193.041, 66.238, -20.763
195.849, 66.262, -20.962
198.697, 66.341, -21.263
201.587, 66.062, -20.988
204.520, 65.975, -22.404
207.494, 66.029, -21.899
210.512, 66.042, -22.919
213.574, 65.968, -23.297
216.681, 65.938, -23.522
219.833, 65.846, -25.806
223.030, 65.771, -25.465
226.274, 65.751, -26.330
229.565, 65.649, -26.154
232.905, 65.660, -26.321
236.292, 65.565, -27.989
239.729, 65.353, -28.433
243.216, 65.276, -28.509
246.754, 65.158, -29.354
250.343, 64.881, -29.944
253.984, 64.881, -30.609
257.678, 64.702, -31.176
261.426, 64.597, -30.654
265.229, 64.441, -31.552
269.087, 64.269, -32.278
273.001, 64.014, -32.511
276.972, 63.929, -32.544
281.000, 63.731, -31.712
285.088, 63.464, -32.532
289.234, 63.293, -32.552
293.441, 62.998, -32.994
297.710, 62.692, -33.072
302.040, 62.541, -33.521
306.433, 62.317, -32.884
310.890, 62.129, -31.688
315.412, 61.809, -31.535
320.000, 61.653, -31.183
324.655, 61.414, -30.641
329.377, 61.286, -29.644
334.168, 61.054, -28.979
339.028, 60.769, -28.326
343.959, 60.523, -26.311
348.962, 60.304, -25.920
354.038, 60.266, -24.612
359.188, 60.008, -23.185
364.412, 59.661, -22.368
369.713, 59.567, -19.992
375.090, 59.416, -18.539
380.546, 59.193, -16.668
386.081, 59.098, -15.599
391.697, 59.031, -13.050
397.395, 58.792, -10.974
403.175, 58.717, -8.806
409.039, 58.592, -6.882
414.989, 58.601, -4.369
421.025, 58.623, -2.245
427.149, 58.530, 0.036
433.362, 58.514, 2.392
439.665, 58.595, 4.955
446.060, 58.713, 7.360
452.548, 58.765, 9.552
459.131, 58.904, 11.092
465.809, 59.138, 13.708
472.584, 59.333, 15.668
479.458, 59.480, 17.418
486.432, 59.736, 18.794
493.507, 59.952, 20.366
500.686, 60.234, 22.262
507.968, 60.463, 23.151
515.357, 60.714, 24.250
522.853, 61.000, 25.059
530.458, 61.190, 25.423
538.174, 61.406, 26.450
546.002, 61.630, 26.952
553.943, 61.818, 27.374
562.001, 62.052, 27.854
570.175, 62.235, 28.147
578.469, 62.395, 28.450
586.883, 62.606, 28.899
595.419, 62.819, 29.100
604.080, 62.945, 29.355
612.866, 63.142, 29.515
621.780, 63.328, 29.822
630.824, 63.465, 29.609
640.000, 63.595, 30.004
649.309, 63.765, 30.314
658.753, 63.856, 30.290
668.335, 64.084, 30.775
678.056, 64.246, 31.003
687.919, 64.407, 31.009
697.925, 64.585, 31.160
708.076, 64.768, 31.119
718.376, 64.957, 31.084
728.825, 65.100, 31.089
739.426, 65.271, 30.934
750.181, 65.374, 30.627
761.093, 65.511, 30.262
772.163, 65.672, 30.122
783.394, 65.744, 29.886
794.789, 65.898, 29.450
806.349, 65.998, 29.052
818.078, 66.100, 28.895
829.977, 66.200, 28.487
842.050, 66.292, 28.088
854.297, 66.361, 27.700
866.724, 66.425, 27.218
879.330, 66.468, 26.828
892.120, 66.488, 26.436
905.097, 66.474, 26.129
918.262, 66.448, 26.036
931.618, 66.404, 26.285
945.169, 66.402, 26.743
958.917, 66.392, 27.328
972.864, 66.423, 28.157
987.015, 66.501, 28.984
1001.371, 66.600, 29.679
1015.937, 66.730, 30.370
1030.714, 66.888, 30.826
1045.706, 67.055, 30.873
1060.916, 67.186, 30.893
1076.347, 67.274, 30.871
1092.003, 67.351, 30.968
1107.887, 67.434, 31.114
1124.001, 67.535, 31.275
1140.350, 67.618, 31.428
1156.937, 67.719, 31.561
1173.765, 67.815, 31.762
1190.838, 67.911, 31.846
1208.159, 68.008, 31.965
1225.732, 68.086, 31.976
1243.561, 68.171, 32.128
1261.649, 68.255, 32.136
1280.000, 68.331, 32.246
1298.618, 68.399, 32.218
1317.507, 68.453, 32.223
1336.670, 68.498, 32.176
1356.113, 68.526, 32.165
1375.838, 68.529, 32.053
1395.850, 68.483, 32.202
1416.153, 68.395, 32.514
1436.751, 68.287, 33.255
1457.649, 68.158, 34.687
1478.851, 68.068, 36.914
1500.362, 68.121, 40.007
1522.185, 68.369, 42.861
1544.326, 68.743, 44.857
1566.789, 69.154, 46.028
1589.578, 69.497, 46.654
1612.699, 69.787, 47.031
1636.156, 70.040, 47.574
1659.955, 70.344, 48.221
1684.099, 70.675, 48.714
1708.595, 71.007, 48.824
1733.447, 71.307, 48.761
1758.661, 71.595, 48.621
1784.241, 71.878, 48.575
1810.193, 72.183, 48.584
1836.523, 72.534, 48.207
1863.236, 72.866, 47.247
1890.338, 73.146, 46.067
1917.833, 73.359, 44.712
1945.729, 73.513, 43.326
1974.030, 73.617, 42.008
2002.743, 73.646, 41.008
2031.873, 73.635, 40.949
2061.428, 73.775, 41.316
2091.412, 73.990, 41.046
2121.832, 74.180, 40.375
2152.695, 74.322, 39.521
2184.007, 74.432, 38.655
2215.774, 74.513, 37.789
2248.003, 74.549, 36.966
2280.701, 74.522, 36.167
2313.874, 74.422, 35.848
2347.530, 74.298, 36.456
2381.676, 74.256, 38.265
2416.318, 74.450, 40.512
2451.464, 74.844, 41.571
2487.122, 75.200, 41.444
2523.298, 75.426, 41.093
2560.000, 75.692, 41.393
2597.236, 76.041, 40.949
2635.014, 76.288, 40.069
2673.341, 76.498, 39.501
2712.226, 76.759, 39.220
2751.676, 77.123, 38.425
2791.700, 77.438, 36.988
2832.306, 77.713, 35.047
2873.503, 77.913, 32.840
2915.299, 78.055, 30.507
2957.703, 78.126, 28.167
3000.724, 78.116, 26.245
3044.370, 78.159, 24.464
3088.652, 78.213, 21.998
3133.577, 78.111, 19.215
3179.156, 77.807, 16.737
3225.398, 77.339, 15.853
3272.312, 77.041, 17.462
3319.909, 77.165, 19.142
3368.198, 77.464, 18.676
3417.190, 77.631, 16.608
3466.894, 77.636, 14.278
3517.321, 77.514, 12.103
3568.482, 77.342, 10.516
3620.387, 77.218, 9.249
3673.046, 77.160, 7.240
3726.472, 76.975, 4.379
3780.675, 76.624, 1.542
3835.666, 76.108, -1.254
3891.457, 75.434, -2.608
3948.060, 74.856, -3.308
4005.486, 74.233, -4.160
4063.747, 73.455, -4.842
4122.855, 72.432, -4.331
4182.824, 71.356, -0.526
4243.664, 70.741, 6.061
4305.390, 70.609, 10.877
4368.013, 70.415, 14.088
4431.547, 70.111, 17.413
4496.005, 69.799, 22.357
4561.401, 69.982, 27.948
4627.749, 70.378, 30.363
4695.061, 70.443, 30.778
4763.352, 70.286, 32.591
4832.637, 70.391, 35.786
4902.929, 70.701, 36.164
4974.244, 70.639, 35.131
5046.596, 70.340, 35.602
5120.000, 70.112, 37.388
5194.472, 70.327, 39.271
5270.027, 70.555, 36.746
5346.682, 70.244, 32.864
5424.451, 69.428, 29.964
5503.352, 68.807, 30.628
5583.399, 68.189, 27.668
5664.612, 66.893, 24.260
5747.006, 65.005, 25.401
5830.598, 63.565, 30.216
5915.406, 61.871, 34.667
6001.447, 60.329, 44.241
6088.740, 59.303, 54.843
6177.303, 58.641, 62.099
6267.154, 57.228, 68.913
6358.312, 55.667, 81.117
6450.796, 54.485, 95.063
6544.625, 53.042, 112.845
6639.818, 51.990, 138.308
6736.397, 53.478, 169.585
6834.380, 56.218, -174.331
6933.789, 58.621, -165.593
7034.643, 60.074, -162.257
7136.964, 61.057, -152.697
7240.773, 62.889, -145.217
7346.093, 64.528, -141.415
7452.944, 66.220, -139.350
7561.350, 67.444, -138.763
7671.332, 68.687, -138.804
7782.915, 69.795, -141.064
7896.120, 70.510, -143.229
8010.971, 71.155, -147.879
8127.493, 71.055, -151.759
8245.711, 70.743, -153.346
8365.647, 70.402, -153.721
8487.328, 69.801, -150.649
8610.779, 69.828, -146.757
8736.026, 70.149, -143.651
8863.095, 70.746, -144.029
8992.011, 70.514, -153.574
9122.803, 69.030, -155.123
9255.497, 67.957, -155.742
9390.121, 65.548, -155.760
9526.704, 63.806, -146.895
9665.273, 61.158, -138.875
9805.857, 58.945, -119.820
9948.487, 58.056, -94.770
10093.191, 57.324, -66.098
10240.000, 60.229, -36.482
10388.944, 63.618, -25.568
10540.055, 66.245, -23.136
10693.363, 68.368, -28.623
10848.902, 68.826, -38.975
11006.703, 67.716, -46.148
11166.799, 65.630, -42.510
11329.224, 64.654, -30.626
11494.012, 64.027, -19.743
11661.195, 63.805, -8.918
11830.812, 63.439, 2.075
12002.895, 63.745, 14.840
12177.480, 64.083, 24.552
12354.606, 64.482, 31.386
12534.309, 64.167, 39.042
12716.624, 63.880, 48.962
12901.592, 64.044, 64.738
13089.250, 65.192, 74.642
13279.637, 66.368, 80.747
13472.794, 66.843, 81.258
13668.760, 66.908, 81.554
13867.577, 66.322, 84.210
14069.285, 65.480, 84.492
14273.928, 64.096, 91.287
14481.547, 63.414, 101.979
14692.186, 63.997, 85.933
14905.889, 58.332, 85.935
15122.700, 52.999, 99.386
15342.664, 45.169, 118.946
15565.829, 42.720, -73.498
15792.239, 54.643, -62.295
16021.942, 60.132, -66.065
16254.986, 63.029, -69.398
16491.422, 64.147, -69.773
16731.295, 65.177, -66.913
16974.656, 66.116, -72.553
17221.559, 64.680, -67.980
17472.053, 62.486, -52.928
17726.189, 62.478, -31.814
17984.021, 64.144, -16.237
18245.605, 65.199, -16.459
18510.994, 63.529, 5.788
18780.242, 64.852, -20.241
19053.408, 65.869, -0.454
19330.547, 65.320, 15.732
19611.715, 63.987, 21.552
19896.975, 60.658, 6.739
