* Measurement data measured by REW V5.19
* Source: In 1-2 (MOTU M Series), no input selected, L, volume: no control
* Format: 1M Log Swept Sine, 1 sweep at -3.0 dBFS  With no timing reference
* Dated: 23 Sep, 2020 5:08:26 PM
* REW Settings:
*  C-weighting compensation: Off
*  Target level: 75.0 dB
* Note: ; 
* Measurement: Sep 23 17:08:26
* Smoothing: None
* Frequency Step: 1/48 octave
* Start Frequency: 10.0 Hz
*
* Freq(Hz), SPL(dB), Phase(degrees)
10.145, 66.651, 64.097
10.293, 66.619, 63.170
10.443, 66.584, 62.434
10.595, 66.553, 61.778
10.749, 66.536, 61.200
10.905, 66.530, 60.692
11.064, 66.541, 60.182
11.225, 66.571, 59.685
11.388, 66.614, 59.125
11.554, 66.674, 58.488
11.722, 66.741, 57.753
11.892, 66.813, 56.890
12.065, 66.884, 55.918
12.241, 66.946, 54.840
12.419, 66.999, 53.674
12.599, 67.037, 52.466
12.782, 67.062, 51.228
12.968, 67.072, 50.017
13.157, 67.072, 48.835
13.348, 67.066, 47.720
13.543, 67.057, 46.655
13.740, 67.051, 45.639
13.939, 67.049, 44.635
14.142, 67.052, 43.618
14.348, 67.053, 42.555
14.557, 67.052, 41.431
14.768, 67.036, 40.263
14.983, 67.003, 39.068
15.201, 66.947, 37.920
15.422, 66.873, 36.870
15.646, 66.783, 35.979
15.874, 66.693, 35.276
16.105, 66.609, 34.750
16.339, 66.546, 34.346
16.577, 66.504, 33.964
16.818, 66.482, 33.547
17.063, 66.463, 33.024
17.311, 66.438, 32.445
17.563, 66.400, 31.852
17.818, 66.348, 31.368
18.077, 66.304, 31.032
18.340, 66.280, 30.813
18.607, 66.295, 30.607
18.877, 66.344, 30.174
19.152, 66.398, 29.415
19.431, 66.428, 28.307
19.713, 66.392, 26.989
20.000, 66.279, 25.834
20.291, 66.117, 25.161
20.586, 65.961, 25.140
20.885, 65.886, 25.700
21.189, 65.951, 26.328
21.497, 66.129, 26.311
21.810, 66.333, 25.325
22.127, 66.468, 23.455
22.449, 66.467, 21.132
22.776, 66.315, 18.967
23.107, 66.056, 17.514
23.443, 65.782, 17.017
23.784, 65.582, 17.221
24.130, 65.482, 17.531
24.481, 65.432, 17.534
24.837, 65.364, 17.287
25.198, 65.258, 17.165
25.565, 65.158, 17.444
25.937, 65.128, 17.955
26.314, 65.179, 18.166
26.697, 65.238, 17.700
27.085, 65.210, 16.731
27.479, 65.057, 15.887
27.879, 64.829, 15.795
28.284, 64.637, 16.580
28.696, 64.560, 17.702
29.113, 64.569, 18.471
29.537, 64.572, 18.736
29.966, 64.513, 18.917
30.402, 64.421, 19.454
30.844, 64.360, 20.358
31.293, 64.348, 21.302
31.748, 64.349, 22.115
32.210, 64.334, 23.031
32.678, 64.337, 24.333
33.154, 64.424, 25.885
33.636, 64.601, 27.188
34.125, 64.803, 28.015
34.621, 64.983, 28.682
35.125, 65.185, 29.554
35.636, 65.487, 30.353
36.154, 65.872, 30.356
36.680, 66.215, 29.330
37.214, 66.435, 27.844
37.755, 66.572, 26.544
38.304, 66.705, 25.330
38.861, 66.807, 23.769
39.427, 66.797, 22.138
40.000, 66.722, 21.263
40.582, 66.740, 21.049
41.172, 66.873, 20.310
41.771, 66.960, 18.801
42.379, 66.952, 17.474
42.995, 66.988, 16.531
43.620, 67.072, 15.066
44.255, 67.040, 13.123
44.898, 66.902, 11.896
45.552, 66.813, 11.250
46.214, 66.708, 10.327
46.886, 66.448, 10.126
47.568, 66.289, 11.826
48.260, 66.457, 13.135
48.962, 66.581, 12.437
49.674, 66.417, 11.946
50.397, 66.258, 13.218
51.130, 66.321, 14.687
51.874, 66.452, 15.313
52.628, 66.578, 15.545
53.394, 66.716, 15.456
54.170, 66.854, 15.010
54.958, 66.958, 14.168
55.758, 66.975, 13.406
56.569, 67.008, 13.278
57.391, 67.108, 12.904
58.226, 67.154, 12.486
59.073, 67.275, 12.172
59.932, 67.326, 10.683
60.804, 67.160, 10.148
61.688, 67.201, 10.405
62.586, 67.196, 9.388
63.496, 67.179, 9.578
64.420, 67.362, 8.119
65.357, 67.109, 6.641
66.307, 67.177, 8.098
67.272, 67.444, 5.879
68.250, 67.137, 4.561
69.243, 67.119, 5.932
70.250, 67.241, 5.778
71.272, 67.315, 5.513
72.309, 67.341, 4.486
73.360, 67.211, 4.022
74.427, 67.207, 4.237
75.510, 67.228, 3.567
76.608, 67.182, 3.561
77.723, 67.319, 3.279
78.853, 67.295, 2.097
80.000, 67.204, 2.140
81.164, 67.209, 2.146
82.344, 67.190, 2.171
83.542, 67.256, 1.496
84.757, 67.097, 1.034
85.990, 67.293, 1.239
87.241, 67.256, -0.562
88.510, 67.245, -0.584
89.797, 67.151, -0.568
91.103, 67.226, -0.359
92.428, 67.151, 0.146
93.773, 67.274, -1.029
95.137, 67.072, -1.544
96.520, 67.078, -2.346
97.924, 66.966, -2.215
99.349, 67.174, -1.779
100.794, 67.258, -2.404
102.260, 67.229, -3.865
103.747, 67.088, -3.365
105.256, 66.897, -4.798
106.787, 67.024, -4.676
108.340, 66.892, -5.603
109.916, 67.133, -6.307
111.515, 66.900, -6.159
113.137, 67.093, -5.924
114.783, 66.925, -6.271
116.452, 66.705, -7.345
118.146, 66.587, -6.620
119.865, 66.786, -7.318
121.608, 66.667, -8.236
123.377, 66.683, -8.429
125.171, 66.613, -8.042
126.992, 66.531, -7.937
128.839, 66.717, -8.407
130.713, 66.408, -7.684
132.615, 66.533, -8.247
134.543, 66.662, -8.905
136.500, 66.530, -8.173
138.486, 66.452, -9.523
140.500, 66.697, -9.446
142.544, 66.476, -8.789
144.617, 66.411, -9.569
146.721, 66.338, -9.910
148.855, 66.394, -10.345
151.020, 66.337, -10.557
153.217, 66.386, -10.283
155.445, 66.237, -10.698
157.706, 66.275, -12.114
160.000, 66.231, -12.023
162.327, 66.416, -11.103
164.688, 66.170, -11.057
167.084, 65.942, -11.502
169.514, 66.018, -13.163
171.980, 66.091, -13.116
174.481, 66.193, -13.253
177.019, 66.202, -13.383
179.594, 66.110, -12.069
182.206, 65.750, -12.895
184.856, 65.798, -13.350
187.545, 65.845, -14.126
190.273, 65.779, -14.274
193.041, 65.819, -13.945
195.849, 65.772, -14.348
198.697, 65.687, -14.067
201.587, 65.704, -14.672
204.520, 65.615, -14.100
207.494, 65.571, -15.510
210.512, 65.632, -14.518
213.574, 65.518, -15.392
216.681, 65.404, -14.802
219.833, 65.358, -15.245
223.030, 65.308, -14.519
226.274, 65.310, -14.210
229.565, 65.346, -16.251
232.905, 65.326, -15.406
236.292, 65.201, -15.360
239.729, 65.164, -16.294
243.216, 65.186, -16.047
246.754, 65.051, -15.237
250.343, 65.003, -16.194
253.984, 64.908, -16.717
257.678, 64.948, -17.077
261.426, 64.719, -16.618
265.229, 64.670, -16.513
269.087, 64.620, -17.274
273.001, 64.657, -17.544
276.972, 64.533, -17.607
281.000, 64.464, -17.472
285.088, 64.310, -18.153
289.234, 64.208, -17.641
293.441, 64.146, -17.340
297.710, 64.022, -17.253
302.040, 63.942, -17.193
306.433, 63.859, -17.635
310.890, 63.737, -16.844
315.412, 63.619, -16.997
320.000, 63.604, -16.737
324.655, 63.489, -16.188
329.377, 63.390, -15.597
334.168, 63.345, -15.604
339.028, 63.274, -14.949
343.959, 63.128, -15.696
348.962, 63.112, -14.172
354.038, 62.900, -13.840
359.188, 62.871, -13.295
364.412, 62.740, -13.053
369.713, 62.645, -12.315
375.090, 62.560, -11.033
380.546, 62.514, -10.717
386.081, 62.393, -9.575
391.697, 62.362, -9.238
397.395, 62.246, -8.604
403.175, 62.181, -7.369
409.039, 62.116, -6.473
414.989, 62.122, -5.231
421.025, 62.060, -5.123
427.149, 62.148, -2.511
433.362, 62.179, -2.153
439.665, 62.015, -0.713
446.060, 61.962, -0.337
452.548, 61.991, 1.426
459.131, 62.278, 2.687
465.809, 62.009, 3.888
472.584, 62.571, 4.340
479.458, 62.315, 5.507
486.432, 62.430, 6.693
493.507, 62.601, 6.898
500.686, 62.748, 8.110
507.968, 62.772, 8.292
515.357, 62.916, 8.794
522.853, 63.125, 8.766
530.458, 63.166, 9.957
538.174, 63.375, 10.185
546.002, 63.135, 10.902
553.943, 63.469, 9.725
562.001, 63.437, 9.532
570.175, 63.419, 10.125
578.469, 63.642, 9.868
586.883, 63.718, 10.239
595.419, 63.903, 10.500
604.080, 63.715, 10.448
612.866, 63.594, 11.908
621.780, 63.705, 11.056
630.824, 63.606, 11.700
640.000, 63.620, 12.655
649.309, 63.581, 12.823
658.753, 63.809, 13.416
668.335, 63.856, 15.927
678.056, 63.868, 15.853
687.919, 63.931, 16.345
697.925, 63.987, 16.868
708.076, 64.167, 17.391
718.376, 64.212, 17.869
728.825, 64.340, 18.410
739.426, 64.410, 18.685
750.181, 64.506, 19.420
761.093, 64.564, 19.648
772.163, 64.678, 20.301
783.394, 64.748, 20.501
794.789, 64.877, 20.531
806.349, 64.993, 21.245
818.078, 65.076, 21.206
829.977, 65.179, 21.641
842.050, 65.296, 21.766
854.297, 65.398, 21.934
866.724, 65.461, 21.920
879.330, 65.510, 21.527
892.120, 65.530, 21.667
905.097, 65.525, 22.126
918.262, 65.519, 22.203
931.618, 65.506, 22.883
945.169, 65.531, 23.803
958.917, 65.575, 24.777
972.864, 65.652, 25.827
987.015, 65.776, 26.743
1001.371, 65.944, 27.711
1015.937, 66.135, 28.384
1030.714, 66.312, 28.559
1045.706, 66.477, 28.608
1060.916, 66.591, 28.726
1076.347, 66.690, 28.949
1092.003, 66.779, 29.118
1107.887, 66.875, 29.513
1124.001, 67.001, 29.551
1140.350, 67.081, 30.130
1156.937, 67.210, 30.312
1173.765, 67.311, 30.538
1190.838, 67.425, 30.790
1208.159, 67.534, 30.936
1225.732, 67.663, 31.199
1243.561, 67.758, 31.273
1261.649, 67.871, 31.403
1280.000, 67.982, 31.513
1298.618, 68.056, 31.412
1317.507, 68.106, 31.474
1336.670, 68.180, 31.407
1356.113, 68.199, 31.376
1375.838, 68.213, 31.286
1395.850, 68.154, 31.453
1416.153, 68.037, 31.931
1436.751, 67.915, 32.943
1457.649, 67.780, 35.123
1478.851, 67.806, 38.112
1500.362, 68.022, 41.281
1522.185, 68.419, 43.642
1544.326, 68.845, 44.909
1566.789, 69.258, 45.455
1589.578, 69.587, 45.578
1612.699, 69.854, 45.599
1636.156, 70.058, 46.003
1659.955, 70.316, 46.717
1684.099, 70.620, 47.274
1708.595, 70.966, 47.616
1733.447, 71.282, 47.593
1758.661, 71.591, 47.551
1784.241, 71.914, 47.452
1810.193, 72.267, 47.257
1836.523, 72.645, 46.470
1863.236, 72.949, 45.158
1890.338, 73.185, 43.696
1917.833, 73.359, 42.321
1945.729, 73.468, 41.061
1974.030, 73.515, 40.038
2002.743, 73.548, 39.863
2031.873, 73.713, 40.288
2061.428, 73.964, 39.911
2091.412, 74.168, 39.092
2121.832, 74.338, 38.117
2152.695, 74.478, 37.108
2184.007, 74.584, 36.194
2215.774, 74.679, 35.150
2248.003, 74.706, 34.094
2280.701, 74.677, 33.258
2313.874, 74.581, 32.981
2347.530, 74.485, 33.606
2381.676, 74.511, 35.362
2416.318, 74.775, 36.955
2451.464, 75.159, 37.336
2487.122, 75.422, 37.038
2523.298, 75.720, 37.097
2560.000, 76.077, 36.445
2597.236, 76.359, 35.214
2635.014, 76.549, 34.004
2673.341, 76.752, 33.281
2712.226, 77.034, 32.566
2751.676, 77.389, 31.103
2791.700, 77.665, 29.032
2832.306, 77.867, 26.430
2873.503, 77.989, 23.798
2915.299, 78.030, 21.125
2957.703, 78.003, 18.701
3000.724, 77.984, 16.720
3044.370, 77.992, 14.343
3088.652, 77.926, 11.300
3133.577, 77.690, 8.296
3179.156, 77.267, 5.954
3225.398, 76.767, 5.498
3272.312, 76.491, 6.734
3319.909, 76.535, 7.350
3368.198, 76.640, 6.227
3417.190, 76.613, 4.328
3466.894, 76.435, 2.097
3517.321, 76.137, 0.338
3568.482, 75.807, -0.441
3620.387, 75.609, -0.697
3673.046, 75.551, -2.140
3726.472, 75.345, -4.825
3780.675, 74.872, -7.985
3835.666, 74.171, -9.590
3891.457, 73.541, -9.957
3948.060, 72.968, -10.389
4005.486, 72.323, -11.277
4063.747, 71.418, -11.754
4122.855, 70.352, -10.337
4182.824, 69.274, -6.332
4243.664, 68.598, -0.030
4305.390, 68.264, 5.724
4368.013, 68.025, 9.785
4431.547, 67.672, 14.353
4496.005, 67.502, 20.464
4561.401, 67.847, 25.613
4627.749, 68.073, 26.546
4695.061, 67.877, 27.763
4763.352, 67.665, 31.326
4832.637, 67.832, 34.766
4902.929, 68.030, 35.149
4974.244, 67.799, 35.320
5046.596, 67.494, 36.770
5120.000, 67.271, 39.687
5194.472, 67.441, 41.452
5270.027, 67.504, 40.061
5346.682, 67.015, 37.498
5424.451, 66.120, 37.763
5503.352, 65.783, 39.475
5583.399, 65.002, 36.889
5664.612, 63.394, 36.834
5747.006, 61.836, 42.996
5830.598, 60.628, 49.312
5915.406, 59.397, 59.344
6001.447, 58.661, 70.349
6088.740, 58.520, 81.703
6177.303, 58.545, 87.007
6267.154, 57.747, 92.505
6358.312, 56.898, 102.228
6450.796, 56.300, 111.564
6544.625, 55.250, 123.129
6639.818, 54.285, 142.262
6736.397, 55.164, 164.514
6834.380, 56.821, -179.758
6933.789, 58.631, -171.038
7034.643, 59.674, -166.401
7136.964, 60.567, -156.521
7240.773, 62.012, -149.317
7346.093, 63.344, -143.475
7452.944, 64.754, -139.814
7561.350, 66.008, -135.842
7671.332, 67.532, -133.852
7782.915, 69.017, -134.848
7896.120, 70.435, -138.225
8010.971, 71.305, -146.551
8127.493, 71.321, -154.154
8245.711, 70.907, -160.186
8365.647, 70.141, -165.888
8487.328, 68.765, -168.497
8610.779, 67.070, -166.620
8736.026, 65.655, -158.221
8863.095, 65.813, -149.710
8992.011, 64.484, -151.466
9122.803, 63.124, -137.667
9255.497, 62.941, -130.437
9390.121, 62.255, -117.175
9526.704, 62.908, -108.828
9665.273, 62.472, -106.670
9805.857, 61.140, -95.238
9948.487, 62.240, -84.441
10093.191, 61.619, -81.928
10240.000, 60.463, -70.758
10388.944, 60.440, -55.293
10540.055, 60.512, -41.761
10693.363, 61.218, -29.033
10848.902, 61.518, -19.387
11006.703, 62.794, -3.803
11166.799, 64.627, 2.910
11329.224, 66.007, 2.248
11494.012, 66.464, -0.429
11661.195, 66.180, -3.401
11830.812, 64.938, -2.294
12002.895, 64.071, 4.082
12177.480, 63.064, 10.997
12354.606, 61.971, 19.781
12534.309, 61.065, 33.510
12716.624, 60.655, 46.034
12901.592, 60.507, 62.978
13089.250, 60.987, 76.136
13279.637, 61.891, 85.826
13472.794, 62.630, 91.918
13668.760, 62.628, 91.115
13867.577, 61.541, 97.401
14069.285, 60.442, 102.045
14273.928, 58.536, 111.285
14481.547, 57.635, 130.334
14692.186, 56.844, 143.839
14905.889, 56.234, 154.572
15122.700, 53.633, 170.729
15342.664, 52.141, -151.092
15565.829, 54.208, -121.385
15792.239, 56.425, -103.282
16021.942, 57.947, -90.924
16254.986, 59.426, -79.981
16491.422, 59.951, -69.042
16731.295, 61.566, -49.707
16974.656, 65.180, -59.011
17221.559, 63.581, -64.572
17472.053, 61.018, -55.797
17726.189, 59.672, -39.684
17984.021, 59.794, -24.066
18245.605, 59.549, -18.108
18510.994, 56.857, 7.967
18780.242, 58.388, -5.407
19053.408, 59.691, 27.605
19330.547, 60.305, 44.736
19611.715, 59.136, 46.460
19896.975, 55.840, 28.380
