* Measurement data measured by REW V5.19
* Source: ASIO MOTU M Series, In 1
* Format: 1M Log Swept Sine, 1 sweep at -3.0 dBFS  With no timing reference
* Dated: 9 Jul, 2021 4:32:44 PM
* REW Settings:
*  C-weighting compensation: Off
*  Target level: 75.0 dB
* Note: ; 
* Measurement: Jul 9 16:32:44
* Smoothing: 1/48 octave
* Frequency Step: 1/48 octave
* Start Frequency: 10.1 Hz
*
* Freq(Hz), SPL(dB), Phase(degrees)
10.145, 63.704, 76.285
10.293, 63.811, 75.760
10.443, 63.921, 74.988
10.595, 64.089, 73.901
10.749, 64.256, 72.682
10.905, 64.370, 71.565
11.064, 64.456, 70.448
11.225, 64.532, 69.255
11.388, 64.593, 68.033
11.554, 64.632, 66.916
11.722, 64.651, 65.890
11.892, 64.663, 64.984
12.065, 64.668, 64.188
12.241, 64.679, 63.463
12.419, 64.695, 62.801
12.599, 64.718, 62.158
12.782, 64.745, 61.507
12.968, 64.776, 60.783
13.157, 64.804, 60.002
13.348, 64.822, 59.154
13.543, 64.827, 58.280
13.740, 64.816, 57.391
13.939, 64.789, 56.560
14.142, 64.752, 55.804
14.348, 64.710, 55.167
14.557, 64.674, 54.633
14.768, 64.649, 54.199
14.983, 64.644, 53.803
15.201, 64.657, 53.395
15.422, 64.691, 52.925
15.646, 64.734, 52.345
15.874, 64.781, 51.658
16.105, 64.826, 50.868
16.339, 64.861, 50.028
16.577, 64.888, 49.180
16.818, 64.908, 48.360
17.063, 64.926, 47.602
17.311, 64.947, 46.899
17.563, 64.975, 46.237
17.818, 65.010, 45.591
18.077, 65.050, 44.935
18.340, 65.090, 44.270
18.607, 65.127, 43.610
18.877, 65.159, 42.979
19.152, 65.187, 42.403
19.431, 65.217, 41.890
19.713, 65.251, 41.415
20.000, 65.290, 40.942
20.291, 65.330, 40.435
20.586, 65.365, 39.874
20.885, 65.386, 39.271
21.189, 65.389, 38.673
21.497, 65.373, 38.143
21.810, 65.345, 37.733
22.127, 65.316, 37.456
22.449, 65.298, 37.284
22.776, 65.296, 37.152
23.107, 65.313, 36.983
23.443, 65.341, 36.716
23.784, 65.374, 36.324
24.130, 65.402, 35.816
24.481, 65.420, 35.225
24.837, 65.425, 34.596
25.198, 65.419, 33.974
25.565, 65.406, 33.394
25.937, 65.389, 32.875
26.314, 65.374, 32.423
26.697, 65.363, 32.033
27.085, 65.360, 31.690
27.479, 65.364, 31.375
27.879, 65.375, 31.075
28.284, 65.388, 30.789
28.696, 65.403, 30.535
29.113, 65.424, 30.328
29.537, 65.459, 30.147
29.966, 65.512, 29.909
30.402, 65.574, 29.505
30.844, 65.624, 28.885
31.293, 65.638, 28.152
31.748, 65.613, 27.514
32.210, 65.576, 27.128
32.678, 65.565, 26.915
33.154, 65.588, 26.603
33.636, 65.607, 26.007
34.125, 65.573, 25.293
34.621, 65.486, 24.880
35.125, 65.408, 25.002
35.636, 65.404, 25.374
36.154, 65.464, 25.460
36.680, 65.514, 25.118
37.214, 65.510, 24.689
37.755, 65.485, 24.459
38.304, 65.474, 24.268
38.861, 65.438, 23.928
39.427, 65.343, 23.859
40.000, 65.270, 24.585
40.582, 65.362, 25.574
41.172, 65.568, 25.661
41.771, 65.703, 24.844
42.379, 65.732, 24.313
42.995, 65.827, 24.317
43.620, 66.002, 23.763
44.255, 66.062, 22.589
44.898, 66.007, 22.278
45.552, 66.085, 22.810
46.214, 66.281, 22.387
46.886, 66.313, 21.136
47.568, 66.218, 20.890
48.260, 66.267, 21.176
48.962, 66.347, 20.362
49.674, 66.247, 19.487
50.397, 66.167, 19.744
51.130, 66.253, 19.655
51.874, 66.274, 18.637
52.628, 66.191, 18.174
53.394, 66.208, 18.222
54.170, 66.267, 17.570
54.958, 66.191, 16.804
55.758, 66.084, 17.109
56.569, 66.141, 17.651
57.391, 66.222, 17.063
58.226, 66.133, 16.363
59.073, 66.056, 16.656
59.932, 66.118, 16.699
60.804, 66.163, 16.094
61.688, 66.185, 15.464
62.586, 66.173, 14.747
63.496, 66.126, 14.632
64.420, 66.188, 14.736
65.357, 66.220, 14.161
66.307, 66.140, 14.070
67.272, 66.128, 14.458
68.250, 66.145, 14.437
69.243, 66.137, 14.222
70.250, 66.116, 13.909
71.272, 66.099, 13.625
72.309, 66.102, 13.276
73.360, 66.111, 12.929
74.427, 66.121, 12.526
75.510, 66.096, 12.274
76.608, 66.068, 12.371
77.723, 66.091, 12.739
78.853, 66.164, 12.475
80.000, 66.094, 11.998
81.164, 66.040, 12.359
82.344, 66.078, 12.443
83.542, 66.086, 12.073
84.757, 66.050, 11.888
85.990, 66.040, 11.821
87.241, 66.038, 11.799
88.510, 66.069, 11.682
89.797, 66.082, 11.377
91.103, 66.081, 11.180
92.428, 66.065, 10.906
93.773, 66.035, 11.135
95.137, 66.089, 11.112
96.520, 66.068, 10.918
97.924, 66.066, 11.075
99.349, 66.093, 10.974
100.794, 66.065, 10.756
102.260, 66.054, 10.846
103.747, 66.065, 10.816
105.256, 66.073, 10.752
106.787, 66.086, 10.822
108.340, 66.105, 10.814
109.916, 66.118, 10.696
111.515, 66.087, 10.571
113.137, 66.084, 10.659
114.783, 66.090, 10.482
116.452, 66.108, 10.398
118.146, 66.105, 10.132
119.865, 66.102, 10.214
121.608, 66.119, 9.984
123.377, 66.068, 10.207
125.171, 66.133, 10.357
126.992, 66.139, 10.116
128.839, 66.125, 10.087
130.713, 66.106, 10.066
132.615, 66.110, 10.223
134.543, 66.142, 10.144
136.500, 66.172, 9.995
138.486, 66.190, 9.914
140.500, 66.200, 9.757
142.544, 66.190, 9.690
144.617, 66.194, 9.700
146.721, 66.200, 9.667
148.855, 66.201, 9.694
151.020, 66.197, 9.630
153.217, 66.197, 9.559
155.445, 66.214, 9.531
157.706, 66.225, 9.702
160.000, 66.240, 9.787
162.327, 66.236, 9.764
164.688, 66.255, 9.694
167.084, 66.282, 9.654
169.514, 66.290, 9.688
171.980, 66.305, 9.820
174.481, 66.339, 9.745
177.019, 66.355, 9.663
179.594, 66.366, 9.609
182.206, 66.382, 9.568
184.856, 66.425, 9.573
187.545, 66.463, 9.433
190.273, 66.490, 9.350
193.041, 66.517, 9.222
195.849, 66.548, 9.059
198.697, 66.592, 8.880
201.587, 66.638, 8.641
204.520, 66.674, 8.335
207.494, 66.706, 7.910
210.512, 66.749, 7.332
213.574, 66.772, 6.670
216.681, 66.782, 5.855
219.833, 66.738, 4.935
223.030, 66.628, 4.042
226.274, 66.461, 3.311
229.565, 66.250, 3.367
232.905, 66.107, 4.152
236.292, 66.062, 4.894
239.729, 66.077, 5.563
243.216, 66.134, 5.929
246.754, 66.193, 5.751
250.343, 66.221, 5.244
253.984, 66.213, 4.406
257.678, 66.118, 3.377
261.426, 65.902, 2.591
265.229, 65.576, 2.567
269.087, 65.265, 3.901
273.001, 65.092, 6.095
276.972, 65.077, 8.233
281.000, 65.171, 9.875
285.088, 65.301, 11.092
289.234, 65.443, 11.887
293.441, 65.565, 12.414
297.710, 65.689, 12.759
302.040, 65.786, 12.969
306.433, 65.877, 13.172
310.890, 65.960, 13.265
315.412, 66.038, 13.320
320.000, 66.100, 13.407
324.655, 66.171, 13.498
329.377, 66.237, 13.474
334.168, 66.298, 13.516
339.028, 66.362, 13.402
343.959, 66.410, 13.198
348.962, 66.427, 13.155
354.038, 66.457, 13.205
359.188, 66.493, 13.330
364.412, 66.533, 13.517
369.713, 66.590, 13.721
375.090, 66.672, 13.839
380.546, 66.761, 13.739
386.081, 66.835, 13.617
391.697, 66.908, 13.381
397.395, 66.951, 13.160
403.175, 67.011, 13.038
409.039, 67.085, 12.701
414.989, 67.130, 12.313
421.025, 67.167, 11.986
427.149, 67.200, 11.597
433.362, 67.202, 11.493
439.665, 67.302, 11.496
446.060, 67.440, 10.950
452.548, 67.557, 9.737
459.131, 67.589, 7.830
465.809, 67.410, 5.462
472.584, 66.937, 4.635
479.458, 66.543, 6.541
486.432, 66.487, 9.252
493.507, 66.659, 11.030
500.686, 66.899, 11.806
507.968, 67.143, 11.787
515.357, 67.378, 11.094
522.853, 67.583, 9.730
530.458, 67.694, 7.432
538.174, 67.586, 4.720
546.002, 67.285, 2.793
553.943, 66.920, 1.607
562.001, 66.385, 1.331
570.175, 65.854, 3.722
578.469, 65.723, 7.356
586.883, 65.834, 9.595
595.419, 65.918, 11.140
604.080, 66.047, 12.385
612.866, 66.150, 13.359
621.780, 66.318, 14.385
630.824, 66.482, 14.800
640.000, 66.624, 15.158
649.309, 66.745, 15.423
658.753, 66.905, 15.925
668.335, 67.122, 16.013
678.056, 67.336, 15.493
687.919, 67.436, 14.659
697.925, 67.543, 14.382
708.076, 67.734, 13.625
718.376, 67.823, 11.873
728.825, 67.712, 10.763
739.426, 67.686, 10.668
750.181, 67.765, 9.972
761.093, 67.781, 8.702
772.163, 67.755, 6.950
783.394, 67.354, 4.653
794.789, 66.812, 6.744
806.349, 66.796, 9.603
818.078, 66.960, 11.413
829.977, 67.232, 12.021
842.050, 67.454, 11.502
854.297, 67.535, 10.448
866.724, 67.600, 10.314
879.330, 67.827, 9.334
892.120, 67.921, 6.633
905.097, 67.622, 3.491
918.262, 67.107, 3.395
931.618, 66.800, 3.844
945.169, 66.412, 5.777
958.917, 66.381, 8.948
972.864, 66.610, 10.714
987.015, 66.815, 11.402
1001.371, 67.007, 11.584
1015.937, 67.267, 11.616
1030.714, 67.528, 10.194
1045.706, 67.536, 7.427
1060.916, 67.225, 6.695
1076.347, 67.213, 7.378
1092.003, 67.396, 6.188
1107.887, 67.196, 2.782
1124.001, 66.470, 3.427
1140.350, 66.523, 7.480
1156.937, 66.971, 7.034
1173.765, 67.048, 3.525
1190.838, 66.514, 1.609
1208.159, 66.157, 2.214
1225.732, 65.862, 3.224
1243.561, 65.803, 4.702
1261.649, 65.815, 4.365
1280.000, 65.682, 3.399
1298.618, 65.369, 1.900
1317.507, 64.602, 1.153
1336.670, 63.771, 6.893
1356.113, 64.056, 12.824
1375.838, 64.518, 13.416
1395.850, 64.446, 11.488
1416.153, 63.822, 11.837
1436.751, 63.257, 17.901
1457.649, 63.779, 23.906
1478.851, 64.412, 24.706
1500.362, 64.519, 23.611
1522.185, 64.386, 24.689
1544.326, 64.665, 27.296
1566.789, 65.016, 26.767
1589.578, 65.018, 25.048
1612.699, 64.753, 24.742
1636.156, 64.504, 26.052
1659.955, 64.396, 27.639
1684.099, 64.309, 29.011
1708.595, 64.059, 29.887
1733.447, 63.633, 33.983
1758.661, 63.820, 39.835
1784.241, 64.371, 42.268
1810.193, 64.478, 42.983
1836.523, 64.522, 46.558
1863.236, 64.950, 49.656
1890.338, 65.317, 51.768
1917.833, 65.778, 54.156
1945.729, 66.380, 55.612
1974.030, 67.032, 55.416
2002.743, 67.397, 53.802
2031.873, 67.616, 52.581
2061.428, 67.686, 51.772
2091.412, 67.745, 51.720
2121.832, 67.756, 51.739
2152.695, 67.631, 51.924
2184.007, 67.221, 55.190
2215.774, 67.680, 62.982
2248.003, 68.866, 65.302
2280.701, 69.718, 63.686
2313.874, 70.284, 61.486
2347.530, 70.620, 58.315
2381.676, 70.652, 57.141
2416.318, 70.873, 56.632
2451.464, 70.992, 55.108
2487.122, 70.866, 54.535
2523.298, 70.642, 56.738
2560.000, 70.877, 61.221
2597.236, 71.578, 64.998
2635.014, 72.458, 67.006
2673.341, 73.788, 67.513
2712.226, 74.790, 61.809
2751.676, 75.021, 56.978
2791.700, 75.463, 55.781
2832.306, 76.299, 52.268
2873.503, 76.998, 45.579
2915.299, 77.349, 36.263
2957.703, 76.892, 24.789
3000.724, 75.596, 17.361
3044.370, 73.600, 15.103
3088.652, 71.962, 25.224
3133.577, 71.433, 36.073
3179.156, 72.818, 51.393
3225.398, 75.145, 50.174
3272.312, 75.513, 40.232
3319.909, 74.971, 39.333
3368.198, 75.656, 45.095
3417.190, 77.343, 42.264
3466.894, 77.759, 32.876
3517.321, 77.741, 26.619
3568.482, 77.256, 20.930
3620.387, 76.834, 22.716
3673.046, 77.368, 20.799
3726.472, 77.272, 17.581
3780.675, 77.435, 15.245
3835.666, 77.458, 11.238
3891.457, 77.164, 8.329
3948.060, 77.078, 7.531
4005.486, 77.284, 4.453
4063.747, 77.025, -0.024
4122.855, 76.665, -2.141
4182.824, 76.314, -4.975
4243.664, 75.801, -4.809
4305.390, 75.731, -5.752
4368.013, 75.367, -6.705
4431.547, 75.199, -6.388
4496.005, 75.104, -6.212
4561.401, 75.337, -6.308
4627.749, 75.542, -9.668
4695.061, 75.343, -13.950
4763.352, 74.828, -16.800
4832.637, 74.361, -18.003
4902.929, 73.932, -19.430
4974.244, 73.302, -20.412
5046.596, 72.685, -18.933
5120.000, 72.345, -17.338
5194.472, 71.989, -15.838
5270.027, 71.725, -13.044
5346.682, 71.786, -10.401
5424.451, 71.873, -9.369
5503.352, 71.902, -7.928
5583.399, 72.150, -6.918
5664.612, 72.286, -7.521
5747.006, 72.292, -6.939
5830.598, 72.556, -6.305
5915.406, 72.935, -7.403
6001.447, 73.122, -10.684
6088.740, 72.985, -13.311
6177.303, 72.801, -15.138
6267.154, 72.694, -16.132
6358.312, 72.608, -17.970
6450.796, 72.494, -20.330
6544.625, 72.154, -23.432
6639.818, 71.503, -25.239
6736.397, 70.882, -23.795
6834.380, 70.669, -21.269
6933.789, 70.936, -20.156
7034.643, 71.099, -23.909
7136.964, 70.370, -26.893
7240.773, 69.825, -24.522
7346.093, 69.796, -23.668
7452.944, 69.498, -24.360
7561.350, 69.192, -23.715
7671.332, 68.757, -22.620
7782.915, 68.491, -18.260
7896.120, 69.062, -14.020
8010.971, 69.765, -14.811
8127.493, 70.326, -17.166
8245.711, 70.819, -22.794
8365.647, 70.717, -29.770
8487.328, 70.370, -35.295
8610.779, 70.013, -40.640
8736.026, 69.791, -49.998
8863.095, 68.078, -61.912
8992.011, 65.552, -62.813
9122.803, 63.689, -61.733
9255.497, 61.720, -61.062
9390.121, 58.593, -54.678
9526.704, 56.117, -35.504
9665.273, 54.694, -9.158
9805.857, 56.380, 14.875
9948.487, 58.390, 28.059
10093.191, 60.385, 33.698
10240.000, 62.034, 34.956
10388.944, 62.979, 34.841
10540.055, 64.050, 37.209
10693.363, 65.870, 38.103
10848.902, 67.428, 29.744
11006.703, 67.698, 18.795
11166.799, 67.215, 12.070
11329.224, 66.724, 9.652
11494.012, 66.351, 8.521
11661.195, 66.098, 9.067
11830.812, 66.089, 10.053
12002.895, 66.400, 11.182
12177.480, 66.843, 8.912
12354.606, 66.870, 6.496
12534.309, 67.203, 6.847
12716.624, 68.157, 2.109
12901.592, 68.329, -7.429
13089.250, 67.945, -14.631
13279.637, 67.843, -21.632
13472.794, 67.561, -32.761
13668.760, 66.105, -43.892
13867.577, 64.772, -47.930
14069.285, 64.099, -60.016
14273.928, 61.524, -75.859
14481.547, 57.504, -79.465
14692.186, 53.621, -83.068
14905.889, 47.290, -62.339
15122.700, 47.224, 23.954
15342.664, 51.392, 31.999
15565.829, 53.688, 25.388
15792.239, 54.494, 13.586
16021.942, 53.983, 1.431
16254.986, 52.891, -11.356
16491.422, 49.915, -38.362
16731.295, 41.012, -2.721
16974.656, 44.518, -70.715
17221.559, 52.054, 148.011
17472.053, 54.226, 106.068
17726.189, 55.494, 90.894
17984.021, 55.201, 75.949
18245.605, 53.610, 76.493
18510.994, 53.992, 84.054
18780.242, 54.695, 85.332
19053.408, 56.101, 82.764
19330.547, 55.944, 69.786
19611.715, 54.367, 67.367
19896.975, 53.551, 68.198
