* Measurement data measured by REW V5.19
* Source: ASIO MOTU M Series, In 1
* Format: 1M Log Swept Sine, 1 sweep at -3.0 dBFS  With no timing reference
* Dated: 9 Jul, 2021 4:33:22 PM
* REW Settings:
*  C-weighting compensation: Off
*  Target level: 75.0 dB
* Note: ; 
* Measurement: Jul 9 16:33:22
* Smoothing: 1/48 octave
* Frequency Step: 1/48 octave
* Start Frequency: 10.1 Hz
*
* Freq(Hz), SPL(dB), Phase(degrees)
10.145, 61.603, 112.376
10.293, 61.730, 111.237
10.443, 61.860, 109.706
10.595, 62.029, 107.675
10.749, 62.181, 105.600
10.905, 62.246, 104.111
11.064, 62.269, 102.924
11.225, 62.303, 101.807
11.388, 62.341, 100.844
11.554, 62.395, 100.170
11.722, 62.467, 99.738
11.892, 62.582, 99.369
12.065, 62.736, 99.040
12.241, 62.929, 98.491
12.419, 63.150, 97.738
12.599, 63.372, 96.707
12.782, 63.586, 95.422
12.968, 63.773, 93.863
13.157, 63.925, 92.176
13.348, 64.030, 90.439
13.543, 64.098, 88.805
13.740, 64.130, 87.318
13.939, 64.150, 86.101
14.142, 64.169, 85.132
14.348, 64.211, 84.413
14.557, 64.288, 83.788
14.768, 64.407, 83.188
14.983, 64.560, 82.421
15.201, 64.732, 81.433
15.422, 64.908, 80.159
15.646, 65.063, 78.646
15.874, 65.187, 76.978
16.105, 65.271, 75.238
16.339, 65.316, 73.585
16.577, 65.335, 72.089
16.818, 65.338, 70.810
17.063, 65.344, 69.759
17.311, 65.366, 68.864
17.563, 65.410, 68.050
17.818, 65.476, 67.226
18.077, 65.555, 66.308
18.340, 65.635, 65.282
18.607, 65.704, 64.168
18.877, 65.759, 63.012
19.152, 65.797, 61.870
19.431, 65.823, 60.782
19.713, 65.845, 59.750
20.000, 65.865, 58.752
20.291, 65.884, 57.757
20.586, 65.900, 56.741
20.885, 65.908, 55.701
21.189, 65.904, 54.659
21.497, 65.891, 53.642
21.810, 65.869, 52.668
22.127, 65.843, 51.736
22.449, 65.812, 50.840
22.776, 65.775, 49.994
23.107, 65.730, 49.243
23.443, 65.686, 48.650
23.784, 65.658, 48.245
24.130, 65.665, 47.970
24.481, 65.718, 47.668
24.837, 65.807, 47.149
25.198, 65.902, 46.307
25.565, 65.966, 45.200
25.937, 65.976, 44.043
26.314, 65.939, 43.106
26.697, 65.885, 42.570
27.085, 65.859, 42.406
27.479, 65.889, 42.373
27.879, 65.966, 42.183
28.284, 66.054, 41.687
28.696, 66.117, 40.947
29.113, 66.141, 40.151
29.537, 66.138, 39.465
29.966, 66.131, 38.908
30.402, 66.135, 38.379
30.844, 66.140, 37.762
31.293, 66.130, 37.053
31.748, 66.093, 36.378
32.210, 66.040, 35.888
32.678, 65.999, 35.623
33.154, 65.992, 35.485
33.636, 66.016, 35.324
34.125, 66.059, 35.087
34.621, 66.113, 34.819
35.125, 66.182, 34.547
35.636, 66.271, 34.209
36.154, 66.367, 33.739
36.680, 66.457, 33.169
37.214, 66.541, 32.563
37.755, 66.624, 31.888
38.304, 66.695, 31.073
38.861, 66.732, 30.187
39.427, 66.738, 29.403
40.000, 66.740, 28.768
40.582, 66.750, 28.127
41.172, 66.748, 27.388
41.771, 66.717, 26.637
42.379, 66.657, 26.007
42.995, 66.581, 25.622
43.620, 66.527, 25.523
44.255, 66.530, 25.379
44.898, 66.536, 24.747
45.552, 66.448, 23.997
46.214, 66.322, 24.026
46.886, 66.342, 24.476
47.568, 66.471, 23.942
48.260, 66.486, 22.518
48.962, 66.381, 21.637
49.674, 66.346, 21.417
50.397, 66.388, 20.840
51.130, 66.376, 19.999
51.874, 66.328, 19.615
52.628, 66.321, 19.598
53.394, 66.348, 19.667
54.170, 66.416, 19.739
54.958, 66.509, 19.313
55.758, 66.492, 18.351
56.569, 66.344, 18.049
57.391, 66.277, 18.555
58.226, 66.302, 18.519
59.073, 66.268, 18.210
59.932, 66.274, 18.172
60.804, 66.319, 17.636
61.688, 66.306, 17.066
62.586, 66.323, 16.701
63.496, 66.322, 16.113
64.420, 66.282, 15.881
65.357, 66.281, 15.834
66.307, 66.278, 15.608
67.272, 66.253, 15.449
68.250, 66.250, 15.228
69.243, 66.204, 14.695
70.250, 66.119, 14.769
71.272, 66.189, 14.891
72.309, 66.237, 13.994
73.360, 66.184, 13.412
74.427, 66.168, 13.230
75.510, 66.183, 13.096
76.608, 66.211, 12.867
77.723, 66.213, 12.606
78.853, 66.181, 12.493
80.000, 66.148, 12.645
81.164, 66.119, 12.796
82.344, 66.118, 13.125
83.542, 66.162, 12.794
84.757, 66.092, 12.310
85.990, 66.047, 12.276
87.241, 66.018, 12.233
88.510, 66.038, 12.366
89.797, 66.102, 12.006
91.103, 66.057, 11.310
92.428, 65.973, 11.345
93.773, 65.964, 11.553
95.137, 65.996, 11.452
96.520, 65.997, 11.250
97.924, 66.006, 11.187
99.349, 66.024, 11.041
100.794, 65.998, 10.956
102.260, 66.012, 10.995
103.747, 65.994, 10.736
105.256, 65.963, 10.767
106.787, 65.966, 10.812
108.340, 65.975, 10.749
109.916, 65.971, 10.670
111.515, 66.010, 10.589
113.137, 66.012, 10.180
114.783, 66.001, 10.117
116.452, 65.996, 10.123
118.146, 65.991, 10.194
119.865, 65.993, 10.104
121.608, 65.956, 9.896
123.377, 65.942, 9.991
125.171, 65.969, 10.046
126.992, 66.023, 10.011
128.839, 66.004, 9.949
130.713, 65.988, 10.046
132.615, 65.994, 10.101
134.543, 65.958, 9.823
136.500, 65.963, 9.796
138.486, 65.979, 9.538
140.500, 65.984, 9.483
142.544, 66.009, 9.497
144.617, 66.007, 9.420
146.721, 66.005, 9.392
148.855, 65.993, 9.262
151.020, 65.978, 9.299
153.217, 65.982, 9.411
155.445, 65.980, 9.412
157.706, 65.984, 9.431
160.000, 65.985, 9.376
162.327, 66.015, 9.398
164.688, 66.028, 9.301
167.084, 66.034, 9.328
169.514, 66.056, 9.369
171.980, 66.076, 9.328
174.481, 66.095, 9.398
177.019, 66.111, 9.254
179.594, 66.113, 9.269
182.206, 66.146, 9.205
184.856, 66.176, 9.087
187.545, 66.203, 8.985
190.273, 66.226, 8.911
193.041, 66.260, 8.682
195.849, 66.287, 8.450
198.697, 66.321, 8.338
201.587, 66.349, 8.168
204.520, 66.373, 7.872
207.494, 66.403, 7.400
210.512, 66.436, 6.868
213.574, 66.454, 6.208
216.681, 66.427, 5.358
219.833, 66.363, 4.505
223.030, 66.251, 3.784
226.274, 66.079, 3.447
229.565, 65.890, 3.709
232.905, 65.770, 4.354
236.292, 65.713, 5.125
239.729, 65.725, 5.731
243.216, 65.779, 5.956
246.754, 65.827, 5.851
250.343, 65.848, 5.422
253.984, 65.829, 4.647
257.678, 65.709, 3.793
261.426, 65.495, 3.242
265.229, 65.223, 3.472
269.087, 64.969, 4.777
273.001, 64.828, 6.667
276.972, 64.837, 8.635
281.000, 64.926, 10.063
285.088, 65.035, 11.069
289.234, 65.157, 11.719
293.441, 65.274, 12.213
297.710, 65.371, 12.563
302.040, 65.450, 12.802
306.433, 65.531, 12.964
310.890, 65.610, 13.086
315.412, 65.675, 13.216
320.000, 65.727, 13.364
324.655, 65.788, 13.438
329.377, 65.846, 13.428
334.168, 65.899, 13.505
339.028, 65.957, 13.492
343.959, 65.999, 13.320
348.962, 66.012, 13.258
354.038, 66.025, 13.371
359.188, 66.046, 13.533
364.412, 66.077, 13.838
369.713, 66.129, 14.122
375.090, 66.207, 14.345
380.546, 66.285, 14.388
386.081, 66.351, 14.347
391.697, 66.420, 14.207
397.395, 66.465, 14.063
403.175, 66.527, 14.122
409.039, 66.605, 13.963
414.989, 66.657, 13.667
421.025, 66.695, 13.553
427.149, 66.748, 13.284
433.362, 66.781, 13.266
439.665, 66.898, 13.275
446.060, 67.040, 12.659
452.548, 67.149, 11.393
459.131, 67.163, 9.528
465.809, 66.946, 7.461
472.584, 66.500, 7.243
479.458, 66.201, 9.303
486.432, 66.202, 11.753
493.507, 66.390, 13.297
500.686, 66.627, 13.941
507.968, 66.866, 13.865
515.357, 67.092, 13.138
522.853, 67.289, 11.755
530.458, 67.382, 9.541
538.174, 67.259, 7.063
546.002, 66.974, 5.410
553.943, 66.628, 4.252
562.001, 66.091, 4.359
570.175, 65.637, 7.141
578.469, 65.583, 10.582
586.883, 65.712, 12.599
595.419, 65.806, 14.067
604.080, 65.955, 15.345
612.866, 66.086, 16.315
621.780, 66.275, 17.228
630.824, 66.453, 17.637
640.000, 66.611, 17.979
649.309, 66.767, 18.226
658.753, 66.935, 18.519
668.335, 67.149, 18.576
678.056, 67.371, 18.108
687.919, 67.498, 17.325
697.925, 67.643, 17.037
708.076, 67.861, 16.132
718.376, 67.950, 14.252
728.825, 67.845, 13.107
739.426, 67.845, 13.080
750.181, 67.940, 12.260
761.093, 67.987, 10.964
772.163, 67.951, 8.952
783.394, 67.527, 7.085
794.789, 67.095, 9.465
806.349, 67.150, 11.962
818.078, 67.360, 13.446
829.977, 67.661, 13.707
842.050, 67.879, 12.805
854.297, 67.962, 11.672
866.724, 68.062, 11.327
879.330, 68.290, 9.853
892.120, 68.342, 6.973
905.097, 68.008, 4.087
918.262, 67.577, 3.974
931.618, 67.249, 4.194
945.169, 66.899, 6.329
958.917, 66.915, 9.365
972.864, 67.191, 11.138
987.015, 67.507, 11.569
1001.371, 67.751, 11.055
1015.937, 68.040, 10.419
1030.714, 68.290, 8.184
1045.706, 68.220, 5.216
1060.916, 67.993, 4.365
1076.347, 68.026, 4.248
1092.003, 68.179, 1.733
1107.887, 67.819, -2.180
1124.001, 67.044, -1.630
1140.350, 66.998, 1.900
1156.937, 67.322, 1.415
1173.765, 67.318, -1.434
1190.838, 66.878, -2.967
1208.159, 66.535, -3.286
1225.732, 66.147, -2.086
1243.561, 66.102, -0.463
1261.649, 66.192, -0.901
1280.000, 66.096, -2.480
1298.618, 65.785, -4.569
1317.507, 64.978, -6.222
1336.670, 64.088, -1.083
1356.113, 64.245, 3.940
1375.838, 64.570, 4.154
1395.850, 64.261, 1.850
1416.153, 63.385, 3.636
1436.751, 62.994, 11.109
1457.649, 63.577, 15.971
1478.851, 64.108, 16.493
1500.362, 64.161, 14.946
1522.185, 63.901, 15.891
1544.326, 64.059, 18.231
1566.789, 64.234, 17.697
1589.578, 63.994, 16.646
1612.699, 63.602, 17.914
1636.156, 63.351, 20.763
1659.955, 63.367, 23.234
1684.099, 63.285, 24.650
1708.595, 63.030, 26.910
1733.447, 62.887, 31.585
1758.661, 63.221, 36.519
1784.241, 63.767, 38.014
1810.193, 63.821, 38.078
1836.523, 63.764, 41.549
1863.236, 64.215, 44.788
1890.338, 64.558, 45.576
1917.833, 64.692, 47.809
1945.729, 65.181, 50.470
1974.030, 65.736, 50.816
2002.743, 66.067, 50.634
2031.873, 66.362, 49.496
2061.428, 66.276, 49.351
2091.412, 66.357, 50.179
2121.832, 66.237, 51.861
2152.695, 66.362, 54.352
2184.007, 66.288, 58.639
2215.774, 67.221, 65.571
2248.003, 68.474, 65.464
2280.701, 69.169, 62.412
2313.874, 69.480, 60.284
2347.530, 69.749, 58.866
2381.676, 69.980, 58.254
2416.318, 70.327, 57.848
2451.464, 70.615, 55.869
2487.122, 70.602, 54.363
2523.298, 70.388, 55.247
2560.000, 70.571, 59.075
2597.236, 71.226, 62.169
2635.014, 72.110, 63.814
2673.341, 73.464, 62.853
2712.226, 74.254, 55.833
2751.676, 74.278, 50.336
2791.700, 74.515, 48.824
2832.306, 75.007, 44.857
2873.503, 75.385, 39.268
2915.299, 75.439, 31.207
2957.703, 74.711, 22.650
3000.724, 73.426, 18.051
3044.370, 71.531, 19.510
3088.652, 70.440, 29.672
3133.577, 69.863, 41.530
3179.156, 71.779, 57.728
3225.398, 73.968, 54.602
3272.312, 74.126, 47.102
3319.909, 74.042, 50.207
3368.198, 75.609, 55.692
3417.190, 77.590, 49.895
3466.894, 78.272, 39.073
3517.321, 78.560, 29.986
3568.482, 78.137, 20.967
3620.387, 77.651, 19.248
3673.046, 77.813, 14.413
3726.472, 77.428, 9.961
3780.675, 77.208, 6.078
3835.666, 76.767, 1.645
3891.457, 76.118, -0.385
3948.060, 75.723, -1.050
4005.486, 75.454, -3.236
4063.747, 74.831, -5.419
4122.855, 74.063, -4.573
4182.824, 73.520, -0.955
4243.664, 73.773, 4.612
4305.390, 74.528, 4.718
4368.013, 75.018, 1.764
4431.547, 75.135, -3.365
4496.005, 74.765, -7.262
4561.401, 74.403, -9.822
4627.749, 73.895, -11.861
4695.061, 73.395, -12.621
4763.352, 72.856, -12.443
4832.637, 72.478, -10.761
4902.929, 72.341, -8.993
4974.244, 72.369, -7.885
5046.596, 72.511, -8.005
5120.000, 72.565, -9.936
5194.472, 72.269, -12.575
5270.027, 71.697, -12.843
5346.682, 71.351, -11.666
5424.451, 71.018, -10.863
5503.352, 70.578, -8.798
5583.399, 70.379, -4.537
5664.612, 70.653, -0.337
5747.006, 71.297, 1.443
5830.598, 71.794, -0.306
5915.406, 71.907, -2.620
6001.447, 71.886, -4.112
6088.740, 71.806, -5.079
6177.303, 71.797, -5.241
6267.154, 71.870, -6.645
6358.312, 71.758, -7.376
6450.796, 71.794, -8.189
6544.625, 71.816, -9.593
6639.818, 71.763, -11.976
6736.397, 71.435, -13.962
6834.380, 71.182, -14.257
6933.789, 71.032, -15.890
7034.643, 70.539, -17.602
7136.964, 69.922, -16.710
7240.773, 69.497, -13.286
7346.093, 69.813, -9.900
7452.944, 70.039, -11.040
7561.350, 69.939, -11.896
7671.332, 69.918, -12.275
7782.915, 69.535, -12.915
7896.120, 69.398, -8.860
8010.971, 69.921, -6.830
8127.493, 70.516, -6.523
8245.711, 71.394, -9.691
8365.647, 71.727, -16.059
8487.328, 71.969, -22.447
8610.779, 71.833, -32.516
8736.026, 70.915, -42.693
8863.095, 69.070, -48.951
8992.011, 67.318, -48.532
9122.803, 65.827, -46.553
9255.497, 64.445, -43.441
9390.121, 62.931, -36.036
9526.704, 62.295, -26.829
9665.273, 61.848, -18.296
9805.857, 61.993, -9.473
9948.487, 62.551, -1.582
10093.191, 63.464, 0.493
10240.000, 63.888, 0.907
10388.944, 64.116, -0.516
10540.055, 63.876, -0.246
10693.363, 63.900, 2.991
10848.902, 64.366, 3.304
11006.703, 64.334, 1.440
11166.799, 63.869, 1.363
11329.224, 63.551, 6.053
11494.012, 63.961, 9.170
11661.195, 64.120, 10.193
11830.812, 64.237, 12.265
12002.895, 64.508, 16.004
12177.480, 65.471, 19.285
12354.606, 66.524, 17.357
12534.309, 67.249, 14.638
12716.624, 68.263, 9.544
12901.592, 68.669, 0.718
13089.250, 68.698, -6.194
13279.637, 69.014, -13.902
13472.794, 68.948, -25.328
13668.760, 68.171, -35.479
13867.577, 67.703, -45.238
14069.285, 66.528, -58.846
14273.928, 64.697, -67.651
14481.547, 63.222, -77.994
14692.186, 60.722, -91.049
14905.889, 57.301, -98.150
15122.700, 53.450, -105.202
15342.664, 47.614, -89.291
15565.829, 46.214, -69.466
15792.239, 43.436, -77.600
16021.942, 40.153, -62.383
16254.986, 42.072, -104.697
16491.422, 43.730, -167.099
16731.295, 47.747, 167.384
16974.656, 52.225, 152.754
17221.559, 55.550, 136.078
17472.053, 57.599, 115.124
17726.189, 57.722, 99.455
17984.021, 57.886, 87.111
18245.605, 56.641, 77.083
18510.994, 55.211, 80.499
18780.242, 55.079, 85.526
19053.408, 55.561, 91.516
19330.547, 56.949, 90.272
19611.715, 57.208, 83.847
19896.975, 57.235, 78.886
