* Measurement data measured by REW V5.19
* Source: ASIO MOTU M Series, In 1
* Format: 1M Log Swept Sine, 1 sweep at -3.0 dBFS  With no timing reference
* Dated: 9 Jul, 2021 4:29:27 PM
* REW Settings:
*  C-weighting compensation: Off
*  Target level: 75.0 dB
* Note: ; 
* Measurement: Jul 9 16:29:27
* Smoothing: 1/48 octave
* Frequency Step: 1/48 octave
* Start Frequency: 10.1 Hz
*
* Freq(Hz), SPL(dB), Phase(degrees)
10.145, 63.588, 82.278
10.293, 63.643, 81.570
10.443, 63.700, 80.619
10.595, 63.787, 79.380
10.749, 63.877, 78.084
10.905, 63.947, 77.094
11.064, 64.011, 76.198
11.225, 64.085, 75.140
11.388, 64.163, 73.991
11.554, 64.233, 72.821
11.722, 64.296, 71.620
11.892, 64.344, 70.403
12.065, 64.378, 69.177
12.241, 64.395, 67.985
12.419, 64.398, 66.850
12.599, 64.390, 65.873
12.782, 64.377, 65.033
12.968, 64.371, 64.338
13.157, 64.380, 63.747
13.348, 64.410, 63.251
13.543, 64.461, 62.727
13.740, 64.534, 62.142
13.939, 64.615, 61.408
14.142, 64.697, 60.536
14.348, 64.764, 59.517
14.557, 64.809, 58.441
14.768, 64.828, 57.348
14.983, 64.822, 56.371
15.201, 64.803, 55.547
15.422, 64.780, 54.927
15.646, 64.776, 54.477
15.874, 64.795, 54.118
16.105, 64.847, 53.766
16.339, 64.921, 53.279
16.577, 65.004, 52.622
16.818, 65.082, 51.774
17.063, 65.136, 50.795
17.311, 65.162, 49.802
17.563, 65.161, 48.886
17.818, 65.144, 48.133
18.077, 65.128, 47.580
18.340, 65.128, 47.171
18.607, 65.151, 46.826
18.877, 65.197, 46.457
19.152, 65.258, 45.985
19.431, 65.320, 45.393
19.713, 65.374, 44.712
20.000, 65.417, 43.981
20.291, 65.449, 43.233
20.586, 65.468, 42.489
20.885, 65.475, 41.764
21.189, 65.467, 41.090
21.497, 65.448, 40.529
21.810, 65.427, 40.137
22.127, 65.425, 39.900
22.449, 65.458, 39.701
22.776, 65.527, 39.341
23.107, 65.607, 38.646
23.443, 65.657, 37.587
23.784, 65.641, 36.347
24.130, 65.548, 35.267
24.481, 65.406, 34.687
24.837, 65.280, 34.728
25.198, 65.232, 35.160
25.565, 65.280, 35.512
25.937, 65.381, 35.400
26.314, 65.468, 34.786
26.697, 65.498, 33.958
27.085, 65.479, 33.283
27.479, 65.453, 32.918
27.879, 65.459, 32.722
28.284, 65.497, 32.437
28.696, 65.536, 31.958
29.113, 65.550, 31.405
29.537, 65.544, 30.963
29.966, 65.543, 30.669
30.402, 65.558, 30.396
30.844, 65.577, 30.031
31.293, 65.579, 29.623
31.748, 65.567, 29.309
32.210, 65.560, 29.124
32.678, 65.569, 28.962
33.154, 65.587, 28.732
33.636, 65.599, 28.474
34.125, 65.615, 28.262
34.621, 65.648, 28.027
35.125, 65.690, 27.595
35.636, 65.703, 26.954
36.154, 65.659, 26.382
36.680, 65.584, 26.209
37.214, 65.540, 26.477
37.755, 65.562, 26.825
38.304, 65.619, 26.902
38.861, 65.647, 26.761
39.427, 65.636, 26.802
40.000, 65.641, 27.264
40.582, 65.728, 27.854
41.172, 65.880, 28.068
41.771, 66.030, 27.786
42.379, 66.148, 27.287
42.995, 66.256, 26.720
43.620, 66.353, 25.974
44.255, 66.410, 25.182
44.898, 66.458, 24.654
45.552, 66.559, 24.140
46.214, 66.660, 23.065
46.886, 66.640, 21.792
47.568, 66.541, 21.336
48.260, 66.533, 21.519
48.962, 66.600, 21.214
49.674, 66.594, 20.492
50.397, 66.541, 20.120
51.130, 66.531, 19.744
51.874, 66.488, 18.942
52.628, 66.378, 18.327
53.394, 66.298, 17.983
54.170, 66.225, 17.351
54.958, 66.081, 17.005
55.758, 65.997, 17.540
56.569, 66.071, 18.018
57.391, 66.175, 17.910
58.226, 66.264, 17.791
59.073, 66.390, 17.582
59.932, 66.489, 16.882
60.804, 66.480, 16.182
61.688, 66.435, 16.052
62.586, 66.427, 15.982
63.496, 66.380, 15.777
64.420, 66.337, 15.890
65.357, 66.338, 15.702
66.307, 66.286, 15.409
67.272, 66.275, 15.391
68.250, 66.294, 15.050
69.243, 66.312, 14.676
70.250, 66.321, 14.063
71.272, 66.281, 13.826
72.309, 66.307, 13.731
73.360, 66.291, 13.457
74.427, 66.269, 13.537
75.510, 66.252, 13.743
76.608, 66.315, 13.822
77.723, 66.261, 12.905
78.853, 66.105, 13.404
80.000, 66.204, 13.642
81.164, 66.201, 12.804
82.344, 66.167, 12.583
83.542, 66.186, 12.482
84.757, 66.231, 12.355
85.990, 66.234, 12.231
87.241, 66.223, 12.607
88.510, 66.274, 12.778
89.797, 66.236, 12.458
91.103, 66.186, 12.532
92.428, 66.187, 12.299
93.773, 66.179, 11.832
95.137, 66.158, 11.567
96.520, 66.167, 11.550
97.924, 66.191, 11.638
99.349, 66.214, 11.698
100.794, 66.226, 11.623
102.260, 66.209, 11.510
103.747, 66.207, 11.448
105.256, 66.214, 11.232
106.787, 66.213, 11.162
108.340, 66.213, 11.022
109.916, 66.202, 11.058
111.515, 66.201, 11.034
113.137, 66.206, 10.993
114.783, 66.227, 10.888
116.452, 66.231, 10.864
118.146, 66.259, 10.835
119.865, 66.240, 10.669
121.608, 66.200, 10.815
123.377, 66.205, 10.931
125.171, 66.237, 10.977
126.992, 66.267, 10.938
128.839, 66.259, 10.746
130.713, 66.246, 10.857
132.615, 66.245, 10.994
134.543, 66.264, 10.760
136.500, 66.270, 10.897
138.486, 66.298, 10.856
140.500, 66.308, 10.830
142.544, 66.310, 10.700
144.617, 66.309, 10.722
146.721, 66.321, 10.864
148.855, 66.337, 10.862
151.020, 66.339, 10.697
153.217, 66.352, 10.593
155.445, 66.380, 10.592
157.706, 66.405, 10.655
160.000, 66.386, 10.793
162.327, 66.411, 10.814
164.688, 66.436, 10.752
167.084, 66.472, 10.748
169.514, 66.495, 10.817
171.980, 66.520, 10.735
174.481, 66.539, 10.615
177.019, 66.556, 10.613
179.594, 66.575, 10.545
182.206, 66.583, 10.489
184.856, 66.608, 10.303
187.545, 66.637, 10.249
190.273, 66.666, 10.247
193.041, 66.682, 10.262
195.849, 66.709, 10.257
198.697, 66.742, 10.154
201.587, 66.775, 10.087
204.520, 66.810, 9.989
207.494, 66.836, 9.872
210.512, 66.875, 9.711
213.574, 66.923, 9.510
216.681, 66.961, 9.307
219.833, 67.002, 9.031
223.030, 67.051, 8.554
226.274, 67.110, 7.968
229.565, 67.138, 7.329
232.905, 67.114, 6.620
236.292, 67.050, 5.755
239.729, 66.941, 5.126
243.216, 66.797, 4.827
246.754, 66.663, 5.059
250.343, 66.591, 5.762
253.984, 66.596, 6.429
257.678, 66.664, 6.731
261.426, 66.753, 6.656
265.229, 66.838, 6.167
269.087, 66.895, 5.294
273.001, 66.888, 4.113
276.972, 66.788, 2.711
281.000, 66.565, 1.358
285.088, 66.194, 0.853
289.234, 65.790, 1.732
293.441, 65.504, 3.808
297.710, 65.414, 6.239
302.040, 65.460, 8.405
306.433, 65.582, 9.963
310.890, 65.724, 10.983
315.412, 65.872, 11.617
320.000, 65.979, 12.035
324.655, 66.097, 12.419
329.377, 66.195, 12.594
334.168, 66.273, 12.881
339.028, 66.383, 13.034
343.959, 66.460, 13.086
348.962, 66.516, 13.138
354.038, 66.576, 13.234
359.188, 66.669, 13.434
364.412, 66.758, 13.493
369.713, 66.850, 13.481
375.090, 66.945, 13.393
380.546, 67.042, 13.103
386.081, 67.099, 12.635
391.697, 67.129, 12.229
397.395, 67.111, 12.159
403.175, 67.146, 12.384
409.039, 67.230, 12.375
414.989, 67.297, 12.240
421.025, 67.367, 12.135
427.149, 67.449, 11.885
433.362, 67.501, 11.669
439.665, 67.604, 11.439
446.060, 67.700, 10.772
452.548, 67.752, 9.935
459.131, 67.752, 9.029
465.809, 67.685, 8.501
472.584, 67.665, 8.536
479.458, 67.729, 8.322
486.432, 67.809, 7.750
493.507, 67.867, 6.415
500.686, 67.776, 4.655
507.968, 67.475, 3.586
515.357, 67.147, 4.382
522.853, 67.025, 6.253
530.458, 67.125, 7.913
538.174, 67.333, 8.602
546.002, 67.540, 8.514
553.943, 67.755, 7.763
562.001, 67.926, 6.197
570.175, 67.961, 3.708
578.469, 67.748, 1.284
586.883, 67.399, 0.083
595.419, 67.048, -0.527
604.080, 66.546, -0.043
612.866, 66.184, 2.878
621.780, 66.203, 5.933
630.824, 66.392, 7.543
640.000, 66.504, 8.120
649.309, 66.567, 8.485
658.753, 66.567, 9.151
668.335, 66.609, 10.243
678.056, 66.789, 11.151
687.919, 66.914, 11.570
697.925, 67.103, 12.105
708.076, 67.339, 12.037
718.376, 67.524, 10.997
728.825, 67.601, 10.168
739.426, 67.647, 8.947
750.181, 67.479, 8.343
761.093, 67.430, 9.358
772.163, 67.609, 10.211
783.394, 67.814, 9.509
794.789, 67.902, 9.073
806.349, 68.086, 8.413
818.078, 68.279, 6.924
829.977, 68.350, 4.104
842.050, 68.072, 1.407
854.297, 67.617, 1.230
866.724, 67.453, 2.817
879.330, 67.510, 3.699
892.120, 67.692, 3.828
905.097, 67.810, 2.209
918.262, 67.696, 0.844
931.618, 67.645, 0.489
945.169, 67.719, -1.217
958.917, 67.495, -3.757
972.864, 67.086, -5.256
987.015, 66.561, -5.804
1001.371, 65.939, -3.655
1015.937, 65.850, 0.362
1030.714, 66.066, 2.166
1045.706, 66.271, 2.250
1060.916, 66.277, 1.387
1076.347, 66.271, 1.423
1092.003, 66.307, 0.290
1107.887, 66.090, -1.770
1124.001, 65.550, -2.139
1140.350, 65.173, 0.827
1156.937, 65.251, 2.746
1173.765, 65.340, 2.959
1190.838, 65.200, 1.926
1208.159, 64.862, 1.980
1225.732, 64.310, 3.212
1243.561, 64.054, 9.026
1261.649, 64.638, 12.238
1280.000, 64.917, 11.181
1298.618, 64.882, 10.360
1317.507, 64.630, 10.999
1336.670, 64.630, 13.305
1356.113, 64.851, 13.802
1375.838, 64.902, 13.009
1395.850, 64.686, 11.886
1416.153, 64.094, 13.767
1436.751, 64.206, 18.774
1457.649, 64.626, 19.977
1478.851, 64.838, 18.954
1500.362, 64.697, 18.508
1522.185, 64.509, 18.677
1544.326, 64.202, 20.929
1566.789, 64.402, 24.532
1589.578, 64.825, 24.848
1612.699, 64.936, 23.015
1636.156, 64.555, 21.483
1659.955, 63.990, 24.373
1684.099, 64.050, 29.279
1708.595, 64.491, 30.641
1733.447, 64.476, 30.285
1758.661, 64.415, 32.099
1784.241, 64.477, 33.746
1810.193, 64.725, 35.258
1836.523, 64.787, 32.509
1863.236, 63.754, 33.625
1890.338, 63.466, 43.089
1917.833, 64.267, 48.742
1945.729, 64.835, 50.013
1974.030, 65.183, 51.215
2002.743, 65.364, 52.530
2031.873, 65.654, 55.401
2061.428, 66.106, 57.609
2091.412, 66.601, 59.114
2121.832, 67.133, 60.280
2152.695, 67.575, 59.197
2184.007, 67.449, 59.715
2215.774, 67.886, 64.902
2248.003, 68.782, 66.369
2280.701, 69.522, 65.547
2313.874, 70.022, 64.800
2347.530, 70.674, 63.420
2381.676, 70.753, 61.475
2416.318, 71.268, 65.243
2451.464, 72.595, 63.683
2487.122, 73.173, 57.756
2523.298, 73.567, 53.705
2560.000, 73.840, 47.469
2597.236, 73.615, 42.256
2635.014, 73.280, 37.407
2673.341, 72.327, 34.634
2712.226, 71.317, 37.917
2751.676, 71.129, 46.169
2791.700, 71.959, 51.070
2832.306, 72.661, 51.799
2873.503, 73.173, 51.721
2915.299, 73.715, 52.510
2957.703, 74.444, 53.791
3000.724, 75.712, 52.084
3044.370, 76.496, 46.603
3088.652, 77.213, 40.905
3133.577, 77.786, 32.557
3179.156, 77.714, 21.526
3225.398, 76.835, 11.951
3272.312, 75.256, 7.281
3319.909, 73.754, 11.586
3368.198, 73.715, 16.675
3417.190, 73.472, 15.395
3466.894, 72.571, 19.796
3517.321, 72.764, 26.840
3568.482, 72.980, 31.988
3620.387, 74.396, 40.397
3673.046, 76.139, 35.050
3726.472, 76.148, 29.806
3780.675, 77.270, 29.363
3835.666, 78.185, 21.434
3891.457, 78.391, 10.296
3948.060, 77.641, 2.085
4005.486, 76.953, -1.290
4063.747, 76.674, -5.776
4122.855, 75.641, -12.285
4182.824, 73.893, -12.653
4243.664, 72.847, -0.394
4305.390, 73.593, 5.661
4368.013, 74.424, 8.621
4431.547, 75.518, 4.965
4496.005, 75.583, -2.806
4561.401, 74.976, -7.123
4627.749, 74.402, -7.526
4695.061, 74.069, -6.881
4763.352, 74.073, -5.618
4832.637, 74.207, -6.995
4902.929, 74.034, -8.353
4974.244, 73.998, -8.959
5046.596, 73.910, -11.128
5120.000, 73.530, -11.967
5194.472, 73.461, -11.753
5270.027, 73.297, -13.395
5346.682, 72.941, -13.635
5424.451, 72.691, -12.805
5503.352, 72.621, -11.741
5583.399, 72.612, -11.297
5664.612, 72.618, -11.061
5747.006, 72.589, -10.484
5830.598, 72.862, -9.607
5915.406, 73.202, -11.216
6001.447, 73.364, -14.094
6088.740, 73.323, -17.186
6177.303, 73.168, -20.325
6267.154, 72.835, -23.393
6358.312, 72.268, -25.456
6450.796, 71.752, -24.821
6544.625, 71.476, -24.277
6639.818, 71.311, -22.945
6736.397, 71.546, -23.028
6834.380, 71.600, -26.826
6933.789, 71.103, -31.319
7034.643, 70.086, -32.527
7136.964, 69.301, -29.533
7240.773, 68.891, -26.027
7346.093, 68.974, -21.653
7452.944, 69.302, -21.272
7561.350, 69.335, -22.660
7671.332, 69.119, -23.128
7782.915, 68.937, -22.881
7896.120, 68.826, -21.830
8010.971, 68.875, -21.179
8127.493, 69.052, -19.289
8245.711, 69.880, -20.535
8365.647, 70.381, -28.001
8487.328, 69.879, -37.782
8610.779, 68.582, -41.315
8736.026, 68.079, -41.292
8863.095, 67.729, -48.829
8992.011, 65.930, -55.909
9122.803, 63.786, -56.055
9255.497, 61.055, -52.918
9390.121, 58.926, -32.512
9526.704, 58.262, -23.027
9665.273, 57.067, 1.376
9805.857, 59.500, 24.435
9948.487, 62.496, 29.186
10093.191, 64.205, 24.087
10240.000, 64.527, 18.356
10388.944, 64.616, 20.197
10540.055, 65.712, 23.021
10693.363, 67.078, 18.071
10848.902, 67.019, 8.577
11006.703, 66.304, 7.322
11166.799, 66.208, 9.737
11329.224, 67.015, 10.281
11494.012, 67.249, 3.955
11661.195, 66.686, 1.137
11830.812, 66.421, 2.472
12002.895, 66.545, 3.043
12177.480, 66.946, 3.024
12354.606, 67.310, -1.154
12534.309, 67.187, -4.825
12716.624, 67.201, -8.176
12901.592, 67.159, -11.947
13089.250, 66.992, -19.283
13279.637, 66.089, -24.844
13472.794, 65.029, -26.656
13668.760, 64.467, -26.781
13867.577, 64.029, -29.269
14069.285, 63.489, -32.382
14273.928, 62.774, -34.732
14481.547, 62.536, -40.814
14692.186, 61.061, -51.878
14905.889, 58.689, -56.281
15122.700, 56.049, -58.089
15342.664, 52.885, -58.435
15565.829, 48.302, -41.899
15792.239, 45.642, -14.790
16021.942, 43.735, 10.090
16254.986, 45.914, 70.885
16491.422, 52.793, 93.449
16731.295, 55.549, 79.045
16974.656, 57.623, 73.586
17221.559, 59.484, 59.536
17472.053, 59.038, 42.436
17726.189, 57.095, 41.074
17984.021, 57.344, 48.184
18245.605, 57.891, 42.229
18510.994, 57.235, 38.320
18780.242, 57.241, 32.786
19053.408, 55.422, 20.674
19330.547, 51.213, 31.534
19611.715, 50.460, 64.535
19896.975, 53.107, 80.044
