* Measurement data measured by REW V5.19
* Source: ASIO MOTU M Series, In 1
* Format: 1M Log Swept Sine, 2 sweeps at -10.0 dBFS  With no timing reference
* Dated: 16 Sep, 2020 7:07:02 PM
* REW Settings:
*  C-weighting compensation: Off
*  Target level: 75.0 dB
* Note: ; 
* Measurement: Sep 16 19:07:02
* Smoothing: None
* Frequency Step: 1/48 octave
* Start Frequency: 10.0 Hz
*
* Freq(Hz), SPL(dB), Phase(degrees)
10.145, 67.981, -103.839
10.293, 68.104, -104.605
10.443, 68.259, -105.493
10.595, 68.417, -106.540
10.749, 68.565, -107.782
10.905, 68.704, -109.197
11.064, 68.815, -110.695
11.225, 68.899, -112.304
11.388, 68.955, -113.883
11.554, 68.977, -115.422
11.722, 68.975, -116.841
11.892, 68.951, -118.071
12.065, 68.916, -119.116
12.241, 68.884, -119.925
12.419, 68.859, -120.539
12.599, 68.860, -121.008
12.782, 68.885, -121.367
12.968, 68.940, -121.745
13.157, 69.021, -122.156
13.348, 69.120, -122.711
13.543, 69.230, -123.396
13.740, 69.339, -124.246
13.939, 69.442, -125.220
14.142, 69.531, -126.303
14.348, 69.605, -127.437
14.557, 69.662, -128.602
14.768, 69.708, -129.752
14.983, 69.741, -130.880
15.201, 69.767, -131.968
15.422, 69.789, -133.021
15.646, 69.807, -134.040
15.874, 69.824, -135.033
16.105, 69.840, -136.001
16.339, 69.856, -136.949
16.577, 69.871, -137.876
16.818, 69.887, -138.782
17.063, 69.904, -139.670
17.311, 69.923, -140.543
17.563, 69.944, -141.405
17.818, 69.968, -142.263
18.077, 69.995, -143.123
18.340, 70.023, -143.986
18.607, 70.053, -144.856
18.877, 70.083, -145.731
19.152, 70.115, -146.613
19.431, 70.148, -147.505
19.713, 70.182, -148.418
20.000, 70.215, -149.367
20.291, 70.244, -150.360
20.586, 70.263, -151.388
20.885, 70.267, -152.419
21.189, 70.254, -153.390
21.497, 70.230, -154.222
21.810, 70.211, -154.878
22.127, 70.212, -155.391
22.449, 70.246, -155.871
22.776, 70.314, -156.478
23.107, 70.396, -157.348
23.443, 70.465, -158.510
23.784, 70.493, -159.849
24.130, 70.473, -161.167
24.481, 70.420, -162.284
24.837, 70.362, -163.140
25.198, 70.327, -163.828
25.565, 70.320, -164.533
25.937, 70.327, -165.402
26.314, 70.322, -166.455
26.697, 70.289, -167.594
27.085, 70.228, -168.686
27.479, 70.152, -169.655
27.879, 70.075, -170.509
28.284, 70.005, -171.307
28.696, 69.941, -172.108
29.113, 69.878, -172.937
29.537, 69.810, -173.779
29.966, 69.737, -174.592
30.402, 69.667, -175.343
30.844, 69.609, -176.055
31.293, 69.566, -176.831
31.748, 69.525, -177.761
32.210, 69.459, -178.805
32.678, 69.356, -179.778
33.154, 69.235, 179.496
33.636, 69.126, 179.015
34.125, 69.043, 178.615
34.621, 68.976, 178.164
35.125, 68.907, 177.641
35.636, 68.828, 177.053
36.154, 68.723, 176.414
36.680, 68.577, 175.878
37.214, 68.404, 175.709
37.755, 68.264, 175.967
38.304, 68.197, 176.306
38.861, 68.173, 176.332
39.427, 68.138, 176.073
40.000, 68.082, 175.800
40.582, 68.026, 175.607
41.172, 67.977, 175.484
41.771, 67.950, 175.511
42.379, 67.985, 175.599
42.995, 68.084, 175.285
43.620, 68.171, 174.345
44.255, 68.181, 173.116
44.898, 68.128, 172.020
45.552, 68.050, 171.112
46.214, 67.959, 170.330
46.886, 67.861, 169.618
47.568, 67.747, 168.856
48.260, 67.593, 168.194
48.962, 67.445, 167.846
49.674, 67.345, 167.312
50.397, 67.191, 166.247
51.130, 66.922, 165.461
51.874, 66.661, 165.351
52.628, 66.440, 165.242
53.394, 66.183, 165.249
54.170, 65.952, 165.689
54.958, 65.751, 166.054
55.758, 65.508, 166.634
56.569, 65.293, 167.778
57.391, 65.128, 169.125
58.226, 65.017, 170.700
59.073, 64.969, 171.984
59.932, 64.866, 173.131
60.804, 64.789, 174.856
61.688, 64.807, 176.425
62.586, 64.843, 177.724
63.496, 64.902, 178.865
64.420, 64.967, -179.913
65.357, 65.139, -178.724
66.307, 65.303, -178.308
67.272, 65.414, -177.457
68.250, 65.631, -176.763
69.243, 65.765, -176.591
70.250, 65.902, -175.791
71.272, 66.122, -175.556
72.309, 66.265, -175.757
73.360, 66.403, -175.826
74.427, 66.560, -176.167
75.510, 66.706, -176.728
76.608, 66.825, -177.408
77.723, 66.941, -177.961
78.853, 67.062, -178.754
80.000, 67.124, -179.474
81.164, 67.224, 179.933
82.344, 67.291, 178.967
83.542, 67.338, 178.211
84.757, 67.371, 177.259
85.990, 67.392, 176.558
87.241, 67.403, 175.654
88.510, 67.402, 174.930
89.797, 67.372, 174.113
91.103, 67.374, 173.406
92.428, 67.311, 172.582
93.773, 67.311, 172.229
95.137, 67.310, 171.410
96.520, 67.281, 170.981
97.924, 67.303, 170.228
99.349, 67.237, 169.479
100.794, 67.200, 168.843
102.260, 67.154, 168.114
103.747, 67.101, 167.281
105.256, 67.027, 166.479
106.787, 66.963, 165.929
108.340, 66.881, 165.074
109.916, 66.764, 164.499
111.515, 66.642, 164.020
113.137, 66.513, 163.467
114.783, 66.382, 162.828
116.452, 66.220, 162.757
118.146, 66.068, 162.668
119.865, 65.931, 162.954
121.608, 65.799, 163.462
123.377, 65.677, 164.084
125.171, 65.663, 164.518
126.992, 65.679, 164.723
128.839, 65.743, 164.703
130.713, 65.789, 164.358
132.615, 65.804, 163.932
134.543, 65.802, 163.343
136.500, 65.724, 162.648
138.486, 65.645, 162.113
140.500, 65.562, 161.471
142.544, 65.452, 161.038
144.617, 65.341, 160.713
146.721, 65.221, 160.444
148.855, 65.106, 160.136
151.020, 64.967, 160.019
153.217, 64.863, 159.828
155.445, 64.698, 159.590
157.706, 64.584, 159.354
160.000, 64.438, 159.274
162.327, 64.281, 159.324
164.688, 64.097, 159.578
167.084, 63.898, 159.787
169.514, 63.717, 160.557
171.980, 63.547, 161.286
174.481, 63.437, 162.144
177.019, 63.352, 163.370
179.594, 63.282, 164.444
182.206, 63.267, 165.253
184.856, 63.326, 166.101
187.545, 63.359, 166.445
190.273, 63.393, 166.755
193.041, 63.383, 166.941
195.849, 63.403, 166.642
198.697, 63.325, 166.177
201.587, 63.259, 166.063
204.520, 63.153, 166.089
207.494, 63.007, 166.180
210.512, 62.860, 166.448
213.574, 62.755, 166.992
216.681, 62.631, 167.597
219.833, 62.506, 168.243
223.030, 62.381, 168.771
226.274, 62.268, 169.653
229.565, 62.119, 170.772
232.905, 61.995, 172.282
236.292, 61.881, 174.125
239.729, 61.912, 176.238
243.216, 62.042, 178.313
246.754, 62.278, 179.816
250.343, 62.565, -179.730
253.984, 62.775, -179.626
257.678, 62.915, -179.907
261.426, 62.998, 179.573
265.229, 63.007, 179.329
269.087, 63.099, 179.297
273.001, 63.068, 178.495
276.972, 63.026, 178.628
281.000, 63.023, 178.822
285.088, 63.025, 178.608
289.234, 63.008, 178.511
293.441, 63.015, 178.650
297.710, 62.989, 178.875
302.040, 62.932, 179.049
306.433, 62.885, 179.200
310.890, 62.862, 179.411
315.412, 62.852, 179.520
320.000, 62.812, 179.706
324.655, 62.788, 179.860
329.377, 62.750, -179.900
334.168, 62.720, -179.614
339.028, 62.682, -179.303
343.959, 62.647, -178.965
348.962, 62.605, -178.556
354.038, 62.565, -178.128
359.188, 62.516, -177.617
364.412, 62.484, -177.067
369.713, 62.442, -176.614
375.090, 62.404, -176.361
380.546, 62.462, -175.389
386.081, 62.384, -174.716
391.697, 62.416, -173.919
397.395, 62.424, -173.526
403.175, 62.430, -172.495
409.039, 62.506, -171.958
414.989, 62.530, -171.248
421.025, 62.598, -171.014
427.149, 62.605, -170.536
433.362, 62.666, -170.182
439.665, 62.652, -169.622
446.060, 62.681, -169.308
452.548, 62.694, -168.662
459.131, 62.722, -167.961
465.809, 62.777, -167.254
472.584, 62.867, -166.773
479.458, 62.948, -166.266
486.432, 63.021, -165.871
493.507, 63.081, -165.684
500.686, 63.160, -165.419
507.968, 63.216, -165.113
515.357, 63.272, -164.970
522.853, 63.323, -164.677
530.458, 63.375, -164.505
538.174, 63.413, -164.190
546.002, 63.476, -164.013
553.943, 63.511, -163.749
562.001, 63.553, -163.576
570.175, 63.593, -163.266
578.469, 63.650, -162.913
586.883, 63.674, -162.607
595.419, 63.729, -162.412
604.080, 63.793, -161.981
612.866, 63.842, -161.676
621.780, 63.910, -161.397
630.824, 63.971, -161.016
640.000, 64.041, -160.694
649.309, 64.126, -160.440
658.753, 64.199, -160.214
668.335, 64.285, -159.991
678.056, 64.374, -159.830
687.919, 64.469, -159.697
697.925, 64.544, -159.587
708.076, 64.632, -159.507
718.376, 64.721, -159.545
728.825, 64.800, -159.580
739.426, 64.882, -159.665
750.181, 64.953, -159.755
761.093, 65.021, -159.843
772.163, 65.086, -159.991
783.394, 65.156, -160.088
794.789, 65.207, -160.367
806.349, 65.247, -160.492
818.078, 65.309, -160.599
829.977, 65.355, -160.770
842.050, 65.383, -160.858
854.297, 65.429, -161.070
866.724, 65.468, -161.186
879.330, 65.501, -161.310
892.120, 65.533, -161.516
905.097, 65.559, -161.584
918.262, 65.583, -161.686
931.618, 65.604, -161.776
945.169, 65.627, -161.859
958.917, 65.642, -161.913
972.864, 65.666, -161.971
987.015, 65.681, -162.005
1001.371, 65.708, -162.027
1015.937, 65.729, -162.018
1030.714, 65.757, -162.022
1045.706, 65.773, -162.021
1060.916, 65.795, -162.059
1076.347, 65.809, -162.005
1092.003, 65.834, -162.024
1107.887, 65.851, -162.104
1124.001, 65.866, -162.055
1140.350, 65.879, -162.037
1156.937, 65.896, -162.021
1173.765, 65.907, -162.028
1190.838, 65.911, -162.082
1208.159, 65.904, -162.115
1225.732, 65.882, -162.083
1243.561, 65.842, -161.965
1261.649, 65.790, -161.653
1280.000, 65.748, -161.108
1298.618, 65.723, -160.389
1317.507, 65.685, -159.523
1336.670, 65.658, -157.748
1356.113, 65.953, -155.833
1375.838, 66.248, -155.975
1395.850, 66.391, -156.300
1416.153, 66.495, -156.455
1436.751, 66.599, -156.559
1457.649, 66.699, -156.604
1478.851, 66.806, -156.662
1500.362, 66.915, -156.752
1522.185, 67.023, -156.968
1544.326, 67.120, -157.277
1566.789, 67.200, -157.675
1589.578, 67.245, -158.027
1612.699, 67.284, -158.227
1636.156, 67.325, -158.232
1659.955, 67.408, -158.305
1684.099, 67.463, -158.575
1708.595, 67.504, -158.669
1733.447, 67.578, -158.598
1758.661, 67.666, -159.153
1784.241, 67.587, -159.494
1810.193, 67.585, -158.486
1836.523, 67.738, -158.011
1863.236, 67.875, -157.985
1890.338, 67.988, -158.055
1917.833, 68.105, -158.137
1945.729, 68.232, -158.288
1974.030, 68.358, -158.555
2002.743, 68.471, -158.969
2031.873, 68.569, -159.371
2061.428, 68.660, -159.772
2091.412, 68.748, -160.136
2121.832, 68.834, -160.492
2152.695, 68.920, -160.807
2184.007, 69.010, -161.069
2215.774, 69.106, -161.283
2248.003, 69.224, -161.433
2280.701, 69.381, -161.564
2313.874, 69.585, -161.954
2347.530, 69.814, -162.766
2381.676, 70.034, -164.164
2416.318, 70.165, -166.192
2451.464, 70.097, -168.155
2487.122, 69.941, -168.024
2523.298, 70.239, -167.199
2560.000, 70.618, -169.084
2597.236, 70.766, -171.996
2635.014, 70.767, -174.568
2673.341, 70.708, -176.887
2712.226, 70.604, -178.918
2751.676, 70.475, 179.364
2791.700, 70.340, 177.789
2832.306, 70.205, 176.405
2873.503, 70.081, 175.007
2915.299, 69.922, 173.398
2957.703, 69.715, 171.890
3000.724, 69.458, 170.568
3044.370, 69.147, 169.550
3088.652, 68.773, 169.233
3133.577, 68.440, 170.110
3179.156, 68.333, 171.726
3225.398, 68.468, 172.408
3272.312, 68.621, 171.234
3319.909, 68.580, 168.947
3368.198, 68.311, 166.895
3417.190, 67.973, 165.938
3466.894, 67.693, 165.018
3517.321, 67.242, 163.991
3568.482, 66.682, 164.895
3620.387, 66.440, 167.585
3673.046, 66.551, 168.323
3726.472, 66.481, 166.498
3780.675, 66.004, 164.117
3835.666, 65.101, 163.834
3891.457, 64.173, 167.317
3948.060, 63.638, 174.178
4005.486, 63.856, -179.238
4063.747, 64.312, -177.030
4122.855, 64.253, -176.502
4182.824, 64.077, -173.204
4243.664, 64.239, -169.403
4305.390, 64.514, -167.333
4368.013, 64.518, -166.178
4431.547, 64.267, -162.585
4496.005, 64.330, -155.343
4561.401, 65.181, -147.452
4627.749, 66.720, -143.391
4695.061, 68.202, -145.575
4763.352, 69.135, -149.429
4832.637, 69.955, -153.700
4902.929, 70.506, -159.780
4974.244, 70.656, -165.345
5046.596, 70.687, -169.663
5120.000, 70.756, -174.008
5194.472, 70.593, -179.106
5270.027, 70.152, 176.795
5346.682, 69.542, 174.571
5424.451, 69.010, 174.922
5503.352, 68.793, 176.094
5583.399, 68.781, 176.736
5664.612, 68.797, 176.614
5747.006, 68.882, 176.332
5830.598, 68.980, 174.894
5915.406, 68.897, 173.413
6001.447, 68.911, 172.671
6088.740, 68.999, 170.357
6177.303, 68.733, 168.064
6267.154, 68.690, 166.139
6358.312, 68.205, 164.643
6450.796, 68.156, 163.896
6544.625, 67.816, 160.636
6639.818, 67.055, 158.675
6736.397, 65.942, 160.882
6834.380, 65.505, 169.120
6933.789, 66.177, 175.798
7034.643, 67.235, 177.322
7136.964, 68.303, 174.112
7240.773, 68.860, 166.035
7346.093, 68.482, 157.249
7452.944, 67.509, 152.023
7561.350, 66.440, 150.531
7671.332, 65.471, 151.779
7782.915, 64.702, 155.339
7896.120, 64.265, 160.707
8010.971, 64.317, 167.048
8127.493, 64.991, 172.418
8245.711, 66.129, 174.066
8365.647, 67.311, 171.018
8487.328, 68.235, 164.206
8610.779, 68.754, 154.267
8736.026, 68.797, 140.000
8863.095, 67.337, 129.083
8992.011, 65.784, 121.617
9122.803, 63.855, 116.299
9255.497, 61.550, 115.186
9390.121, 59.184, 120.228
9526.704, 57.341, 131.919
9665.273, 56.722, 146.684
9805.857, 57.056, 158.199
9948.487, 57.843, 166.588
10093.191, 59.099, 170.764
10240.000, 60.311, 167.377
10388.944, 60.579, 160.051
10540.055, 60.046, 153.638
10693.363, 59.029, 149.246
10848.902, 57.381, 148.589
11006.703, 56.138, 156.740
11166.799, 56.109, 163.928
11329.224, 55.898, 164.875
11494.012, 54.711, 170.307
11661.195, 55.000, -174.285
11830.812, 56.835, -171.924
12002.895, 57.374, -176.300
12177.480, 57.220, -178.658
12354.606, 56.837, -178.021
12534.309, 56.752, -173.150
12716.624, 57.687, -168.700
12901.592, 59.082, -171.312
13089.250, 59.912, 179.323
13279.637, 59.846, 168.866
13472.794, 59.341, 159.319
13668.760, 58.278, 149.014
13867.577, 56.497, 143.894
14069.285, 55.515, 142.352
14273.928, 54.625, 131.101
14481.547, 51.145, 113.741
14692.186, 43.596, 126.941
14905.889, 44.237, 159.749
15122.700, 41.572, 164.391
15342.664, 40.624, -148.735
15565.829, 45.347, -135.677
15792.239, 47.797, -144.595
16021.942, 46.289, -161.025
16254.986, 42.876, -140.955
16491.422, 44.822, -120.243
16731.295, 46.984, -115.189
16974.656, 48.074, -119.203
17221.559, 48.814, -117.538
17472.053, 49.195, -126.594
17726.189, 47.919, -126.560
17984.021, 47.641, -120.166
18245.605, 48.021, -109.475
18510.994, 50.413, -109.574
18780.242, 50.857, -122.956
19053.408, 49.636, -127.500
19330.547, 49.358, -123.985
19611.715, 49.693, -125.146
19896.975, 50.102, -127.794
