* Measurement data measured by REW V5.19
* Source: ASIO MOTU M Series, In 1
* Format: 1M Log Swept Sine, 2 sweeps at -3.0 dBFS  With no timing reference
* Dated: 23 Sep, 2020 7:36:28 PM
* REW Settings:
*  C-weighting compensation: Off
*  Target level: 75.0 dB
* Note: ; 
* Measurement: Sep 23 19:36:28
* Smoothing: None
* Frequency Step: 1/48 octave
* Start Frequency: 10.1 Hz
*
* Freq(Hz), SPL(dB), Phase(degrees)
10.145, 53.561, -58.210
10.293, 53.615, -59.905
10.443, 53.667, -61.605
10.595, 53.648, -62.894
10.749, 53.605, -63.896
10.905, 53.553, -64.467
11.064, 53.504, -64.660
11.225, 53.503, -64.467
11.388, 53.547, -63.955
11.554, 53.672, -63.417
11.722, 53.870, -62.873
11.892, 54.127, -62.709
12.065, 54.434, -62.907
12.241, 54.742, -63.620
12.419, 55.045, -64.793
12.599, 55.301, -66.329
12.782, 55.510, -68.126
12.968, 55.652, -70.011
13.157, 55.739, -71.827
13.348, 55.771, -73.444
13.543, 55.781, -74.729
13.740, 55.776, -75.638
13.939, 55.803, -76.204
14.142, 55.870, -76.536
14.348, 56.002, -76.798
14.557, 56.183, -77.228
14.768, 56.409, -77.930
14.983, 56.642, -79.031
15.201, 56.860, -80.462
15.422, 57.043, -82.184
15.646, 57.172, -83.990
15.874, 57.253, -85.750
16.105, 57.287, -87.320
16.339, 57.299, -88.554
16.577, 57.311, -89.442
16.818, 57.346, -89.994
17.063, 57.428, -90.330
17.311, 57.563, -90.644
17.563, 57.746, -91.083
17.818, 57.961, -91.792
18.077, 58.181, -92.858
18.340, 58.377, -94.250
18.607, 58.525, -95.872
18.877, 58.607, -97.570
19.152, 58.617, -99.120
19.431, 58.566, -100.245
19.713, 58.495, -100.740
20.000, 58.462, -100.577
20.291, 58.524, -99.976
20.586, 58.712, -99.398
20.885, 59.005, -99.402
21.189, 59.326, -100.343
21.497, 59.581, -102.166
21.810, 59.702, -104.471
22.127, 59.667, -106.668
22.449, 59.508, -108.143
22.776, 59.317, -108.496
23.107, 59.216, -107.838
23.443, 59.286, -106.865
23.784, 59.499, -106.443
24.130, 59.747, -106.994
24.481, 59.917, -108.285
24.837, 59.962, -109.675
25.198, 59.915, -110.520
25.565, 59.870, -110.546
25.937, 59.919, -110.034
26.314, 60.086, -109.590
26.697, 60.325, -109.676
27.085, 60.568, -110.347
27.479, 60.782, -111.430
27.879, 60.962, -112.823
28.284, 61.091, -114.541
28.696, 61.131, -116.493
29.113, 61.047, -118.266
29.537, 60.873, -119.219
29.966, 60.738, -119.041
30.402, 60.775, -118.296
30.844, 60.991, -118.183
31.293, 61.227, -119.345
31.748, 61.331, -121.289
32.210, 61.283, -122.989
32.678, 61.199, -123.825
33.154, 61.199, -124.145
33.636, 61.275, -124.739
34.125, 61.325, -125.760
34.621, 61.308, -126.663
35.125, 61.286, -127.088
35.636, 61.315, -127.372
36.154, 61.347, -127.912
36.680, 61.319, -128.394
37.214, 61.274, -128.279
37.755, 61.319, -127.830
38.304, 61.440, -127.834
38.861, 61.515, -128.383
39.427, 61.514, -128.728
40.000, 61.546, -128.497
40.582, 61.698, -128.365
41.172, 61.901, -129.016
41.771, 62.052, -130.333
42.379, 62.123, -131.830
42.995, 62.133, -133.238
43.620, 62.094, -134.439
44.255, 62.018, -135.247
44.898, 61.948, -135.466
45.552, 61.968, -135.253
46.214, 62.111, -135.499
46.886, 62.220, -136.947
47.568, 62.101, -138.640
48.260, 61.874, -138.812
48.962, 61.870, -138.137
49.674, 61.975, -139.041
50.397, 61.795, -140.571
51.130, 61.497, -139.800
51.874, 61.572, -138.024
52.628, 61.774, -138.461
53.394, 61.670, -139.250
54.170, 61.577, -138.057
54.958, 61.755, -137.382
55.758, 61.771, -138.237
56.569, 61.581, -137.531
57.391, 61.696, -135.534
58.226, 61.996, -135.742
59.073, 61.981, -136.965
59.932, 61.861, -135.934
60.804, 62.140, -134.200
61.688, 62.531, -134.880
62.586, 62.656, -136.054
63.496, 62.773, -136.137
64.420, 62.968, -136.600
65.357, 63.098, -137.311
66.307, 63.226, -138.148
67.272, 63.278, -139.216
68.250, 63.332, -139.916
69.243, 63.385, -141.036
70.250, 63.368, -141.430
71.272, 63.566, -141.757
72.309, 63.616, -143.647
73.360, 63.469, -143.540
74.427, 63.646, -143.025
75.510, 63.763, -144.064
76.608, 63.763, -144.733
77.723, 63.843, -145.065
78.853, 63.952, -146.371
80.000, 63.926, -147.070
81.164, 64.025, -147.506
82.344, 64.110, -147.590
83.542, 64.225, -148.827
84.757, 64.064, -148.168
85.990, 64.327, -148.886
87.241, 64.028, -149.768
88.510, 64.144, -149.483
89.797, 64.120, -149.613
91.103, 64.494, -151.425
92.428, 64.084, -152.786
93.773, 64.406, -151.054
95.137, 64.170, -153.107
96.520, 64.445, -151.546
97.924, 64.135, -156.603
99.349, 63.601, -154.975
100.794, 63.983, -152.637
102.260, 64.239, -156.152
103.747, 64.355, -155.568
105.256, 64.310, -155.243
106.787, 64.515, -156.475
108.340, 64.419, -156.656
109.916, 64.063, -157.562
111.515, 64.375, -157.245
113.137, 64.318, -158.439
114.783, 64.310, -157.899
116.452, 64.256, -158.435
118.146, 64.251, -156.433
119.865, 64.256, -157.877
121.608, 64.297, -158.791
123.377, 64.227, -159.000
125.171, 64.576, -158.504
126.992, 64.225, -160.838
128.839, 64.341, -157.066
130.713, 64.599, -159.025
132.615, 64.446, -161.668
134.543, 64.513, -161.647
136.500, 64.613, -163.023
138.486, 64.605, -162.153
140.500, 64.248, -161.203
142.544, 64.082, -160.280
144.617, 64.043, -163.018
146.721, 64.257, -161.316
148.855, 64.353, -162.023
151.020, 64.204, -162.559
153.217, 64.272, -162.162
155.445, 64.336, -163.633
157.706, 64.373, -163.589
160.000, 64.396, -162.582
162.327, 64.326, -163.990
164.688, 64.441, -162.996
167.084, 64.306, -165.063
169.514, 64.478, -163.591
171.980, 64.356, -164.041
174.481, 64.304, -164.772
177.019, 64.397, -164.906
179.594, 64.458, -164.917
182.206, 64.442, -164.591
184.856, 64.420, -165.860
187.545, 64.337, -166.029
190.273, 64.288, -164.879
193.041, 64.232, -167.012
195.849, 64.301, -166.584
198.697, 64.244, -166.475
201.587, 64.253, -166.834
204.520, 64.171, -167.107
207.494, 64.370, -168.971
210.512, 64.315, -167.890
213.574, 64.185, -168.055
216.681, 64.189, -168.130
219.833, 64.237, -168.684
223.030, 64.069, -168.218
226.274, 64.253, -167.173
229.565, 64.259, -167.770
232.905, 64.407, -167.732
236.292, 64.252, -167.482
239.729, 64.212, -167.811
243.216, 64.169, -167.916
246.754, 64.322, -168.397
250.343, 64.094, -168.767
253.984, 64.220, -168.935
257.678, 64.191, -168.812
261.426, 64.076, -169.068
265.229, 64.088, -168.349
269.087, 64.086, -168.921
273.001, 64.104, -168.555
276.972, 64.080, -168.755
281.000, 64.051, -168.565
285.088, 64.111, -168.662
289.234, 64.217, -168.474
293.441, 64.005, -169.130
297.710, 64.065, -169.223
302.040, 63.963, -169.334
306.433, 64.056, -167.933
310.890, 64.050, -168.736
315.412, 64.026, -168.221
320.000, 64.041, -168.761
324.655, 64.142, -168.246
329.377, 64.066, -168.454
334.168, 63.998, -168.511
339.028, 63.973, -168.464
343.959, 64.153, -168.171
348.962, 64.176, -167.997
354.038, 64.142, -168.805
359.188, 64.100, -168.567
364.412, 64.065, -168.927
369.713, 64.119, -169.410
375.090, 64.133, -169.718
380.546, 64.112, -169.350
386.081, 64.127, -168.776
391.697, 64.204, -169.120
397.395, 64.030, -168.995
403.175, 64.058, -169.679
409.039, 64.065, -169.292
414.989, 63.988, -169.729
421.025, 64.030, -169.720
427.149, 64.035, -169.347
433.362, 64.054, -170.641
439.665, 64.059, -170.156
446.060, 63.995, -170.369
452.548, 63.956, -170.548
459.131, 64.101, -171.350
465.809, 63.958, -171.382
472.584, 63.975, -172.222
479.458, 63.839, -173.288
486.432, 63.632, -174.582
493.507, 63.292, -174.717
500.686, 62.742, -174.447
507.968, 62.398, -171.630
515.357, 62.388, -168.215
522.853, 62.538, -166.408
530.458, 62.696, -164.688
538.174, 62.841, -164.053
546.002, 63.040, -164.419
553.943, 63.019, -162.916
562.001, 63.180, -163.639
570.175, 63.144, -163.340
578.469, 63.226, -163.021
586.883, 63.252, -162.887
595.419, 63.114, -162.669
604.080, 63.232, -162.639
612.866, 63.203, -163.455
621.780, 63.295, -162.621
630.824, 63.193, -162.304
640.000, 63.172, -162.853
649.309, 63.205, -162.672
658.753, 63.134, -162.525
668.335, 63.184, -161.283
678.056, 63.150, -161.450
687.919, 63.189, -160.709
697.925, 63.058, -160.294
708.076, 62.852, -160.200
718.376, 62.918, -159.695
728.825, 62.889, -158.875
739.426, 62.825, -158.732
750.181, 62.795, -157.258
761.093, 62.702, -157.231
772.163, 62.613, -155.540
783.394, 62.718, -155.041
794.789, 62.554, -153.550
806.349, 62.574, -153.324
818.078, 62.711, -151.298
829.977, 62.714, -149.785
842.050, 62.668, -149.529
854.297, 62.876, -147.901
866.724, 62.909, -147.128
879.330, 63.091, -145.515
892.120, 63.088, -144.975
905.097, 63.129, -144.315
918.262, 63.284, -143.481
931.618, 63.394, -142.282
945.169, 63.526, -141.337
958.917, 63.750, -140.132
972.864, 63.910, -139.824
987.015, 64.081, -138.219
1001.371, 64.359, -138.588
1015.937, 64.470, -138.961
1030.714, 64.687, -138.272
1045.706, 64.835, -138.227
1060.916, 64.924, -138.106
1076.347, 65.056, -137.743
1092.003, 65.171, -138.056
1107.887, 65.378, -138.144
1124.001, 65.322, -138.417
1140.350, 65.491, -138.657
1156.937, 65.574, -138.270
1173.765, 65.577, -139.455
1190.838, 65.612, -140.864
1208.159, 65.332, -140.657
1225.732, 65.086, -139.000
1243.561, 65.225, -135.960
1261.649, 65.354, -134.418
1280.000, 65.574, -134.484
1298.618, 65.741, -133.797
1317.507, 65.859, -134.226
1336.670, 65.873, -133.010
1356.113, 66.048, -132.786
1375.838, 66.065, -132.518
1395.850, 66.105, -130.760
1416.153, 66.208, -130.225
1436.751, 66.318, -129.054
1457.649, 66.493, -127.760
1478.851, 66.687, -126.659
1500.362, 66.773, -125.307
1522.185, 67.002, -123.882
1544.326, 67.300, -123.138
1566.789, 67.564, -122.291
1589.578, 67.809, -121.207
1612.699, 68.229, -120.300
1636.156, 68.460, -120.150
1659.955, 68.814, -119.684
1684.099, 69.147, -119.134
1708.595, 69.384, -119.159
1733.447, 69.779, -118.876
1758.661, 70.208, -119.201
1784.241, 70.483, -119.076
1810.193, 70.765, -119.591
1836.523, 71.252, -120.229
1863.236, 71.468, -120.866
1890.338, 71.817, -120.799
1917.833, 72.258, -122.020
1945.729, 72.566, -122.866
1974.030, 72.935, -123.977
2002.743, 73.291, -125.169
2031.873, 73.678, -126.612
2061.428, 74.075, -128.311
2091.412, 74.478, -130.705
2121.832, 74.799, -132.927
2152.695, 75.089, -135.991
2184.007, 75.223, -139.014
2215.774, 75.400, -142.537
2248.003, 75.398, -145.456
2280.701, 75.412, -148.001
2313.874, 75.283, -150.424
2347.530, 75.304, -152.153
2381.676, 75.229, -154.043
2416.318, 75.279, -155.560
2451.464, 75.248, -157.071
2487.122, 75.319, -158.727
2523.298, 75.265, -160.992
2560.000, 75.150, -162.648
2597.236, 75.128, -163.839
2635.014, 75.032, -166.056
2673.341, 74.932, -167.633
2712.226, 74.882, -169.084
2751.676, 74.741, -170.136
2791.700, 74.622, -170.822
2832.306, 74.495, -171.971
2873.503, 74.494, -172.430
2915.299, 74.487, -173.616
2957.703, 74.406, -175.062
3000.724, 74.338, -176.291
3044.370, 74.195, -177.407
3088.652, 74.127, -178.130
3133.577, 74.010, -178.775
3179.156, 73.975, -179.601
3225.398, 73.921, 179.804
3272.312, 73.826, 178.608
3319.909, 73.726, 178.058
3368.198, 73.606, 177.454
3417.190, 73.539, 177.182
3466.894, 73.682, 177.306
3517.321, 73.684, 174.819
3568.482, 73.536, 173.391
3620.387, 73.413, 172.344
3673.046, 73.223, 171.404
3726.472, 73.105, 170.484
3780.675, 72.993, 170.027
3835.666, 72.862, 169.275
3891.457, 72.712, 168.639
3948.060, 72.614, 168.133
4005.486, 72.565, 167.592
4063.747, 72.447, 166.202
4122.855, 72.231, 164.813
4182.824, 71.901, 164.090
4243.664, 71.612, 164.502
4305.390, 71.419, 165.029
4368.013, 71.270, 165.356
4431.547, 71.112, 165.516
4496.005, 70.951, 165.741
4561.401, 70.736, 166.556
4627.749, 70.673, 167.812
4695.061, 70.627, 168.679
4763.352, 70.581, 169.620
4832.637, 70.629, 170.795
4902.929, 70.831, 171.719
4974.244, 71.051, 171.291
5046.596, 71.164, 170.186
5120.000, 71.173, 169.050
5194.472, 71.103, 168.009
5270.027, 70.941, 167.262
5346.682, 70.792, 167.468
5424.451, 70.715, 168.116
5503.352, 70.719, 168.858
5583.399, 70.817, 169.466
5664.612, 70.953, 169.579
5747.006, 71.126, 169.396
5830.598, 71.310, 168.729
5915.406, 71.480, 167.641
6001.447, 71.621, 166.161
6088.740, 71.727, 164.322
6177.303, 71.773, 162.183
6267.154, 71.738, 159.896
6358.312, 71.629, 157.659
6450.796, 71.462, 155.756
6544.625, 71.278, 154.223
6639.818, 71.072, 152.920
6736.397, 70.888, 151.992
6834.380, 70.741, 151.270
6933.789, 70.653, 150.522
7034.643, 70.639, 149.621
7136.964, 70.706, 148.085
7240.773, 70.721, 145.005
7346.093, 70.488, 141.215
7452.944, 70.053, 138.545
7561.350, 69.595, 137.042
7671.332, 69.242, 136.102
7782.915, 68.988, 135.126
7896.120, 68.772, 133.741
8010.971, 68.624, 131.747
8127.493, 68.453, 128.590
8245.711, 68.121, 124.169
8365.647, 67.509, 119.376
8487.328, 66.652, 115.024
8610.779, 65.580, 111.695
8736.026, 64.643, 108.280
8863.095, 62.784, 105.432
8992.011, 60.849, 106.167
9122.803, 58.736, 111.708
9255.497, 57.003, 122.836
9390.121, 56.103, 137.762
9526.704, 56.339, 152.030
9665.273, 57.232, 160.920
9805.857, 58.032, 164.842
9948.487, 58.512, 166.045
10093.191, 58.641, 166.859
10240.000, 58.572, 168.948
10388.944, 58.527, 172.356
10540.055, 58.781, 176.189
10693.363, 59.307, 177.706
10848.902, 59.573, 176.302
11006.703, 59.354, 174.696
11166.799, 58.847, 175.245
11329.224, 58.323, 178.285
11494.012, 57.989, -176.649
11661.195, 57.926, -170.204
11830.812, 58.339, -162.953
12002.895, 59.316, -157.473
12177.480, 60.584, -155.357
12354.606, 61.882, -157.001
12534.309, 63.037, -161.748
12716.624, 63.987, -169.936
12901.592, 64.398, 178.318
13089.250, 63.887, 164.774
13279.637, 62.408, 154.511
13472.794, 60.763, 149.325
13668.760, 59.190, 145.394
13867.577, 57.288, 141.653
14069.285, 54.684, 140.786
14273.928, 51.667, 146.151
14481.547, 48.482, 163.843
14692.186, 47.175, -167.780
14905.889, 48.798, -141.213
15122.700, 51.308, -131.341
15342.664, 52.823, -128.685
15565.829, 53.865, -125.208
15792.239, 55.482, -122.201
16021.942, 55.965, -129.360
16254.986, 56.897, -127.744
16491.422, 57.147, -132.861
16731.295, 56.854, -131.557
16974.656, 57.776, -128.799
17221.559, 58.636, -136.800
17472.053, 57.492, -143.071
17726.189, 56.572, -137.764
17984.021, 56.939, -130.131
18245.605, 58.224, -126.242
18510.994, 59.980, -129.104
18780.242, 61.382, -140.805
19053.408, 61.572, -157.408
19330.547, 60.459, -172.731
19611.715, 58.693, 176.965
19896.975, 56.647, 169.835
