* Measurement data measured by REW V5.19
* Source: ASIO MOTU M Series, In 1
* Format: 1M Log Swept Sine, 2 sweeps at -10.0 dBFS  With no timing reference
* Dated: 15 Sep, 2020 2:01:23 PM
* REW Settings:
*  C-weighting compensation: Off
*  Target level: 75.0 dB
* Note: ; 
* Measurement: Sep 15 14:01:23
* Smoothing: None
* Frequency Step: 1/48 octave
* Start Frequency: 10.0 Hz
*
* Freq(Hz), SPL(dB), Phase(degrees)
10.145, 60.537, -65.636
10.293, 60.708, -66.678
10.443, 60.886, -67.764
10.595, 61.059, -68.940
10.749, 61.219, -70.221
10.905, 61.366, -71.589
11.064, 61.492, -72.959
11.225, 61.596, -74.350
11.388, 61.685, -75.664
11.554, 61.755, -76.877
11.722, 61.820, -77.976
11.892, 61.885, -78.917
12.065, 61.956, -79.750
12.241, 62.045, -80.503
12.419, 62.149, -81.213
12.599, 62.271, -81.980
12.782, 62.405, -82.801
12.968, 62.538, -83.744
13.157, 62.668, -84.774
13.348, 62.778, -85.860
13.543, 62.873, -86.950
13.740, 62.946, -87.953
13.939, 63.010, -88.832
14.142, 63.070, -89.518
14.348, 63.146, -90.064
14.557, 63.244, -90.467
14.768, 63.373, -90.893
14.983, 63.531, -91.382
15.201, 63.705, -92.088
15.422, 63.878, -92.998
15.646, 64.034, -94.141
15.874, 64.154, -95.386
16.105, 64.236, -96.668
16.339, 64.278, -97.822
16.577, 64.296, -98.762
16.818, 64.302, -99.432
17.063, 64.323, -99.840
17.311, 64.371, -100.097
17.563, 64.454, -100.287
17.818, 64.566, -100.568
18.077, 64.693, -100.983
18.340, 64.825, -101.542
18.607, 64.951, -102.212
18.877, 65.070, -102.931
19.152, 65.188, -103.695
19.431, 65.307, -104.518
19.713, 65.427, -105.458
20.000, 65.535, -106.566
20.291, 65.613, -107.808
20.586, 65.649, -109.084
20.885, 65.634, -110.223
21.189, 65.582, -110.997
21.497, 65.531, -111.250
21.810, 65.533, -111.036
22.127, 65.624, -110.614
22.449, 65.812, -110.370
22.776, 66.065, -110.665
23.107, 66.322, -111.645
23.443, 66.521, -113.172
23.784, 66.629, -114.907
24.130, 66.651, -116.465
24.481, 66.623, -117.571
24.837, 66.601, -118.179
25.198, 66.628, -118.498
25.565, 66.709, -118.856
25.937, 66.814, -119.472
26.314, 66.904, -120.337
26.697, 66.960, -121.266
27.085, 66.992, -122.072
27.479, 67.027, -122.713
27.879, 67.084, -123.306
28.284, 67.158, -124.008
28.696, 67.228, -124.867
29.113, 67.278, -125.801
29.537, 67.307, -126.692
29.966, 67.327, -127.476
30.402, 67.344, -128.145
30.844, 67.367, -128.683
31.293, 67.407, -129.087
31.748, 67.481, -129.458
32.210, 67.586, -130.015
32.678, 67.682, -130.885
33.154, 67.727, -131.910
33.636, 67.722, -132.717
34.125, 67.723, -133.138
34.621, 67.778, -133.455
35.125, 67.865, -134.109
35.636, 67.911, -135.080
36.154, 67.902, -135.904
36.680, 67.906, -136.332
37.214, 67.976, -136.737
37.755, 68.066, -137.516
38.304, 68.115, -138.396
38.861, 68.167, -138.964
39.427, 68.289, -139.574
40.000, 68.402, -140.782
40.582, 68.384, -142.043
41.172, 68.315, -142.247
41.771, 68.390, -141.823
42.379, 68.569, -142.331
42.995, 68.594, -143.608
43.620, 68.465, -144.002
44.255, 68.455, -143.263
44.898, 68.633, -143.356
45.552, 68.730, -144.936
46.214, 68.602, -146.579
46.886, 68.406, -146.902
47.568, 68.415, -146.374
48.260, 68.642, -147.007
48.962, 68.766, -149.395
49.674, 68.602, -151.388
50.397, 68.454, -151.171
51.130, 68.629, -150.733
51.874, 68.820, -152.050
52.628, 68.748, -153.285
53.394, 68.657, -152.774
54.170, 68.798, -152.057
54.958, 68.973, -152.834
55.758, 68.938, -154.152
56.569, 68.809, -154.507
57.391, 68.791, -154.566
58.226, 68.791, -155.176
59.073, 68.770, -155.712
59.932, 68.794, -156.301
60.804, 68.805, -157.037
61.688, 68.821, -157.501
62.586, 68.882, -158.004
63.496, 68.911, -158.844
64.420, 68.836, -159.291
65.357, 68.850, -158.924
66.307, 68.947, -159.617
67.272, 68.844, -160.393
68.250, 68.865, -160.318
69.243, 68.889, -162.128
70.250, 68.509, -163.045
71.272, 68.408, -160.884
72.309, 68.732, -160.925
73.360, 68.795, -162.751
74.427, 68.745, -163.764
75.510, 68.661, -164.461
76.608, 68.669, -164.480
77.723, 68.690, -165.707
78.853, 68.489, -166.227
80.000, 68.445, -165.432
81.164, 68.550, -165.777
82.344, 68.488, -166.398
83.542, 68.500, -166.407
84.757, 68.467, -166.820
85.990, 68.467, -166.691
87.241, 68.442, -166.835
88.510, 68.475, -166.585
89.797, 68.504, -167.189
91.103, 68.394, -167.736
92.428, 68.372, -166.921
93.773, 68.485, -168.190
95.137, 68.361, -168.161
96.520, 68.402, -169.241
97.924, 68.323, -168.865
99.349, 68.350, -169.952
100.794, 68.273, -169.649
102.260, 68.207, -170.311
103.747, 68.146, -169.559
105.256, 68.126, -169.679
106.787, 68.067, -169.945
108.340, 67.995, -169.265
109.916, 67.975, -169.376
111.515, 67.983, -169.277
113.137, 67.885, -168.938
114.783, 67.926, -168.423
116.452, 68.007, -168.428
118.146, 68.077, -168.329
119.865, 68.108, -168.239
121.608, 68.190, -168.016
123.377, 68.299, -167.888
125.171, 68.283, -167.607
126.992, 68.290, -168.022
128.839, 68.374, -168.121
130.713, 68.363, -167.846
132.615, 68.537, -168.627
134.543, 68.552, -168.472
136.500, 68.555, -168.720
138.486, 68.679, -169.255
140.500, 68.724, -169.762
142.544, 68.743, -170.234
144.617, 68.760, -170.433
146.721, 68.803, -171.183
148.855, 68.711, -171.693
151.020, 68.716, -172.061
153.217, 68.758, -172.550
155.445, 68.846, -172.233
157.706, 68.756, -172.521
160.000, 68.889, -172.442
162.327, 68.668, -173.865
164.688, 68.947, -173.461
167.084, 68.883, -173.818
169.514, 68.877, -173.520
171.980, 68.875, -173.857
174.481, 68.905, -174.740
177.019, 68.905, -174.275
179.594, 68.902, -174.800
182.206, 68.926, -175.646
184.856, 68.944, -175.801
187.545, 68.957, -176.215
190.273, 68.953, -176.616
193.041, 68.963, -176.891
195.849, 68.960, -177.364
198.697, 68.931, -177.576
201.587, 68.982, -178.113
204.520, 68.949, -178.236
207.494, 68.896, -178.852
210.512, 68.965, -178.875
213.574, 68.958, -178.928
216.681, 68.951, -179.746
219.833, 68.923, 179.920
223.030, 68.885, 179.805
226.274, 68.852, 179.643
229.565, 68.861, 179.001
232.905, 68.863, 178.873
236.292, 68.804, 178.359
239.729, 68.825, 178.599
243.216, 68.838, 177.735
246.754, 68.841, 177.452
250.343, 68.796, 177.037
253.984, 68.749, 176.874
257.678, 68.713, 176.244
261.426, 68.694, 176.139
265.229, 68.646, 175.695
269.087, 68.552, 175.431
273.001, 68.520, 175.083
276.972, 68.405, 175.015
281.000, 68.333, 174.445
285.088, 68.310, 175.299
289.234, 68.372, 175.376
293.441, 68.334, 175.397
297.710, 68.318, 175.010
302.040, 68.329, 174.736
306.433, 68.284, 174.742
310.890, 68.282, 174.927
315.412, 68.333, 174.860
320.000, 68.331, 174.540
324.655, 68.321, 174.193
329.377, 68.331, 173.902
334.168, 68.294, 173.543
339.028, 68.274, 173.221
343.959, 68.200, 173.297
348.962, 68.193, 173.015
354.038, 68.177, 172.908
359.188, 68.261, 172.347
364.412, 68.125, 172.212
369.713, 68.048, 172.008
375.090, 68.091, 171.730
380.546, 68.125, 171.353
386.081, 68.032, 171.558
391.697, 68.025, 171.009
397.395, 68.008, 170.640
403.175, 67.948, 170.328
409.039, 67.908, 170.318
414.989, 67.833, 169.770
421.025, 67.781, 169.870
427.149, 67.873, 169.854
433.362, 67.736, 169.481
439.665, 67.774, 169.741
446.060, 67.732, 169.203
452.548, 67.665, 168.885
459.131, 67.627, 168.751
465.809, 67.582, 168.657
472.584, 67.536, 168.284
479.458, 67.525, 167.943
486.432, 67.413, 167.704
493.507, 67.391, 167.348
500.686, 67.343, 167.110
507.968, 67.274, 166.700
515.357, 67.169, 166.565
522.853, 67.089, 166.496
530.458, 67.058, 166.684
538.174, 67.051, 166.513
546.002, 67.021, 166.159
553.943, 66.945, 165.648
562.001, 66.906, 165.594
570.175, 66.769, 164.307
578.469, 66.613, 164.501
586.883, 66.580, 164.751
595.419, 66.440, 163.895
604.080, 66.263, 164.175
612.866, 66.222, 164.169
621.780, 66.063, 164.322
630.824, 65.967, 164.072
640.000, 65.831, 163.579
649.309, 65.630, 163.619
658.753, 65.371, 163.813
668.335, 65.095, 165.069
678.056, 65.075, 167.282
687.919, 65.128, 167.667
697.925, 65.080, 168.214
708.076, 65.071, 168.314
718.376, 65.096, 168.684
728.825, 65.004, 168.747
739.426, 64.921, 168.983
750.181, 64.849, 169.303
761.093, 64.745, 169.605
772.163, 64.677, 170.051
783.394, 64.588, 170.468
794.789, 64.486, 170.836
806.349, 64.386, 171.564
818.078, 64.322, 172.511
829.977, 64.248, 173.222
842.050, 64.230, 174.009
854.297, 64.237, 174.767
866.724, 64.254, 175.868
879.330, 64.322, 175.863
892.120, 64.267, 176.171
905.097, 64.231, 176.304
918.262, 64.299, 176.508
931.618, 64.291, 176.522
945.169, 64.163, 177.141
958.917, 64.140, 176.754
972.864, 64.087, 177.222
987.015, 63.924, 177.556
1001.371, 63.884, 177.999
1015.937, 63.782, 177.873
1030.714, 63.593, 177.997
1045.706, 63.414, 179.527
1060.916, 63.425, 179.754
1076.347, 63.298, -179.108
1092.003, 62.960, -178.216
1107.887, 62.901, -176.422
1124.001, 63.010, -175.134
1140.350, 62.932, -174.197
1156.937, 62.902, -173.330
1173.765, 62.734, -173.086
1190.838, 62.680, -170.796
1208.159, 62.585, -168.654
1225.732, 62.619, -167.504
1243.561, 62.566, -165.906
1261.649, 62.643, -164.461
1280.000, 62.534, -162.325
1298.618, 62.758, -160.859
1317.507, 62.671, -158.262
1336.670, 62.790, -156.393
1356.113, 62.950, -154.013
1375.838, 63.055, -152.603
1395.850, 63.390, -150.355
1416.153, 63.573, -149.146
1436.751, 63.641, -148.338
1457.649, 63.978, -146.354
1478.851, 64.180, -145.980
1500.362, 64.296, -143.847
1522.185, 64.608, -142.134
1544.326, 64.926, -141.840
1566.789, 65.263, -140.070
1589.578, 65.540, -138.827
1612.699, 66.033, -137.235
1636.156, 66.757, -137.170
1659.955, 67.309, -139.578
1684.099, 67.592, -142.139
1708.595, 67.797, -144.417
1733.447, 67.949, -146.761
1758.661, 67.928, -150.669
1784.241, 67.518, -156.150
1810.193, 64.639, -157.494
1836.523, 65.404, -126.505
1863.236, 68.128, -127.615
1890.338, 69.177, -132.608
1917.833, 69.718, -136.135
1945.729, 70.262, -139.152
1974.030, 70.672, -142.237
2002.743, 71.018, -145.206
2031.873, 71.409, -148.702
2061.428, 71.514, -153.636
2091.412, 71.524, -158.289
2121.832, 71.387, -161.875
2152.695, 71.113, -164.933
2184.007, 70.746, -167.083
2215.774, 70.512, -168.444
2248.003, 70.414, -169.491
2280.701, 70.184, -171.043
2313.874, 69.890, -172.887
2347.530, 69.592, -173.836
2381.676, 69.244, -174.845
2416.318, 68.907, -175.103
2451.464, 68.562, -175.564
2487.122, 68.047, -174.995
2523.298, 67.655, -173.892
2560.000, 67.216, -172.068
2597.236, 66.854, -169.530
2635.014, 66.583, -165.840
2673.341, 66.568, -161.521
2712.226, 66.667, -158.367
2751.676, 66.899, -154.358
2791.700, 67.273, -150.884
2832.306, 67.770, -148.791
2873.503, 68.431, -147.096
2915.299, 69.135, -148.087
2957.703, 69.469, -150.755
3000.724, 69.377, -152.570
3044.370, 69.246, -152.306
3088.652, 69.116, -150.779
3133.577, 69.317, -147.715
3179.156, 69.874, -144.614
3225.398, 70.517, -144.027
3272.312, 71.236, -143.710
3319.909, 72.070, -146.315
3368.198, 72.341, -150.439
3417.190, 72.449, -151.683
3466.894, 72.955, -152.426
3517.321, 73.393, -156.018
3568.482, 73.528, -158.733
3620.387, 73.952, -161.629
3673.046, 74.171, -166.332
3726.472, 74.192, -170.036
3780.675, 74.017, -175.004
3835.666, 73.715, -178.301
3891.457, 73.392, 179.291
3948.060, 73.079, 177.387
4005.486, 72.808, 175.996
4063.747, 72.520, 174.314
4122.855, 72.157, 173.242
4182.824, 71.802, 172.895
4243.664, 71.540, 173.069
4305.390, 71.298, 172.898
4368.013, 70.996, 172.912
4431.547, 70.662, 173.763
4496.005, 70.386, 175.654
4561.401, 70.272, 178.245
4627.749, 70.306, -179.096
4695.061, 70.543, -176.369
4763.352, 71.008, -174.434
4832.637, 71.577, -174.487
4902.929, 72.007, -176.002
4974.244, 72.284, -177.781
5046.596, 72.535, -179.451
5120.000, 72.759, 178.520
5194.472, 72.932, 176.200
5270.027, 73.015, 173.687
5346.682, 73.027, 171.378
5424.451, 73.015, 169.511
5503.352, 73.057, 167.916
5583.399, 73.129, 165.845
5664.612, 73.196, 163.388
5747.006, 73.186, 160.451
5830.598, 73.073, 157.377
5915.406, 72.864, 154.823
6001.447, 72.646, 152.653
6088.740, 72.418, 150.597
6177.303, 72.151, 148.987
6267.154, 71.902, 147.672
6358.312, 71.697, 146.702
6450.796, 71.563, 145.658
6544.625, 71.478, 144.758
6639.818, 71.417, 143.602
6736.397, 71.460, 141.761
6834.380, 71.524, 139.020
6933.789, 71.417, 135.200
7034.643, 71.165, 131.280
7136.964, 70.787, 127.760
7240.773, 70.339, 124.636
7346.093, 69.868, 121.850
7452.944, 69.363, 119.395
7561.350, 68.896, 117.285
7671.332, 68.487, 114.800
7782.915, 68.061, 111.304
7896.120, 67.516, 106.819
8010.971, 66.682, 101.445
8127.493, 65.501, 96.079
8245.711, 63.849, 91.605
8365.647, 61.737, 89.980
8487.328, 59.327, 92.866
8610.779, 56.694, 102.943
8736.026, 55.586, 122.838
8863.095, 55.898, 137.075
8992.011, 56.557, 145.301
9122.803, 56.928, 150.717
9255.497, 57.214, 155.901
9390.121, 57.606, 160.559
9526.704, 58.089, 163.810
9665.273, 58.474, 165.275
9805.857, 58.601, 166.438
9948.487, 58.573, 168.752
10093.191, 58.681, 172.570
10240.000, 59.076, 176.803
10388.944, 59.768, 179.952
10540.055, 60.650, -179.084
10693.363, 61.526, 179.380
10848.902, 62.202, 175.872
11006.703, 62.705, 171.665
11166.799, 63.199, 166.479
11329.224, 63.507, 158.795
11494.012, 63.479, 148.999
11661.195, 62.846, 137.683
11830.812, 61.420, 126.872
12002.895, 59.220, 118.949
12177.480, 56.271, 117.493
12354.606, 53.445, 126.684
12534.309, 52.275, 143.555
12716.624, 52.748, 154.360
12901.592, 53.258, 156.362
13089.250, 53.069, 155.511
13279.637, 52.796, 153.290
13472.794, 51.917, 145.527
13668.760, 49.103, 135.555
13867.577, 43.182, 133.806
14069.285, 34.612, -157.664
14273.928, 44.579, -108.086
14481.547, 47.179, -119.064
14692.186, 47.180, -113.958
14905.889, 48.216, -98.107
15122.700, 50.738, -85.288
15342.664, 53.676, -81.135
15565.829, 56.221, -83.076
15792.239, 58.416, -87.457
16021.942, 60.425, -94.550
16254.986, 62.224, -104.947
16491.422, 63.481, -119.621
16731.295, 63.726, -135.770
16974.656, 63.265, -148.934
17221.559, 62.723, -160.369
17472.053, 61.670, -172.740
17726.189, 59.923, 177.315
17984.021, 57.683, 173.351
18245.605, 55.952, 177.071
18510.994, 55.535, 178.495
18780.242, 54.426, 173.253
19053.408, 52.620, 173.188
19330.547, 51.035, 177.919
19611.715, 50.201, -175.177
19896.975, 50.172, -173.289
