* Measurement data measured by REW V5.19
* Source: ASIO MOTU M Series, In 1
* Format: 1M Log Swept Sine, 2 sweeps at -10.0 dBFS  With no timing reference
* Dated: 15 Sep, 2020 1:58:05 PM
* REW Settings:
*  C-weighting compensation: Off
*  Target level: 75.0 dB
* Note: ; 
* Measurement: Sep 15 13:58:05
* Smoothing: None
* Frequency Step: 1/48 octave
* Start Frequency: 10.0 Hz
*
* Freq(Hz), SPL(dB), Phase(degrees)
10.145, 59.270, -66.502
10.293, 59.418, -67.443
10.443, 59.576, -68.318
10.595, 59.736, -69.217
10.749, 59.891, -70.171
10.905, 60.042, -71.159
11.064, 60.179, -72.143
11.225, 60.304, -73.130
11.388, 60.420, -74.054
11.554, 60.523, -74.894
11.722, 60.625, -75.655
11.892, 60.732, -76.305
12.065, 60.846, -76.905
12.241, 60.978, -77.507
12.419, 61.121, -78.146
12.599, 61.272, -78.941
12.782, 61.424, -79.877
12.968, 61.557, -81.008
13.157, 61.667, -82.281
13.348, 61.732, -83.619
13.543, 61.757, -84.932
13.740, 61.735, -86.063
13.939, 61.689, -86.924
14.142, 61.629, -87.379
14.348, 61.597, -87.493
14.557, 61.609, -87.241
14.768, 61.697, -86.963
14.983, 61.857, -86.744
15.201, 62.073, -86.944
15.422, 62.313, -87.569
15.646, 62.546, -88.712
15.874, 62.736, -90.163
16.105, 62.877, -91.826
16.339, 62.960, -93.435
16.577, 63.011, -94.847
16.818, 63.043, -95.976
17.063, 63.097, -96.826
17.311, 63.184, -97.563
17.563, 63.312, -98.306
17.818, 63.464, -99.263
18.077, 63.610, -100.429
18.340, 63.734, -101.752
18.607, 63.816, -103.086
18.877, 63.867, -104.226
19.152, 63.906, -105.108
19.431, 63.955, -105.727
19.713, 64.035, -106.198
20.000, 64.141, -106.714
20.291, 64.252, -107.336
20.586, 64.350, -108.033
20.885, 64.424, -108.676
21.189, 64.487, -109.095
21.497, 64.578, -109.277
21.810, 64.723, -109.433
22.127, 64.921, -109.869
22.449, 65.135, -110.830
22.776, 65.310, -112.357
23.107, 65.394, -114.213
23.443, 65.371, -115.975
23.784, 65.272, -117.215
24.130, 65.167, -117.733
24.481, 65.132, -117.713
24.837, 65.198, -117.631
25.198, 65.335, -117.934
25.565, 65.480, -118.752
25.937, 65.581, -119.885
26.314, 65.629, -120.999
26.697, 65.651, -121.868
27.085, 65.683, -122.490
27.479, 65.742, -123.024
27.879, 65.817, -123.608
28.284, 65.890, -124.239
28.696, 65.957, -124.824
29.113, 66.034, -125.331
29.537, 66.135, -125.880
29.966, 66.247, -126.655
30.402, 66.335, -127.711
30.844, 66.371, -128.880
31.293, 66.355, -129.884
31.748, 66.327, -130.557
32.210, 66.329, -131.026
32.678, 66.364, -131.566
33.154, 66.400, -132.288
33.636, 66.412, -133.000
34.125, 66.427, -133.489
34.621, 66.486, -133.871
35.125, 66.585, -134.516
35.636, 66.656, -135.503
36.154, 66.661, -136.426
36.680, 66.647, -136.853
37.214, 66.692, -136.939
37.755, 66.796, -137.243
38.304, 66.889, -137.917
38.861, 66.942, -138.609
39.427, 67.000, -139.178
40.000, 67.078, -139.975
40.582, 67.117, -141.158
41.172, 67.071, -142.248
41.771, 67.003, -142.757
42.379, 67.016, -142.870
42.995, 67.121, -143.284
43.620, 67.230, -144.282
44.255, 67.268, -145.495
44.898, 67.247, -146.306
45.552, 67.252, -146.525
46.214, 67.343, -146.584
46.886, 67.485, -147.064
47.568, 67.582, -148.028
48.260, 67.585, -148.987
48.962, 67.548, -149.518
49.674, 67.544, -149.921
50.397, 67.523, -150.664
51.130, 67.421, -151.228
51.874, 67.365, -151.104
52.628, 67.449, -151.315
53.394, 67.513, -152.440
54.170, 67.484, -153.527
54.958, 67.452, -154.284
55.758, 67.409, -154.773
56.569, 67.426, -154.718
57.391, 67.545, -155.134
58.226, 67.556, -156.160
59.073, 67.495, -156.396
59.932, 67.546, -156.563
60.804, 67.560, -157.494
61.688, 67.497, -158.198
62.586, 67.464, -158.825
63.496, 67.406, -159.495
64.420, 67.374, -159.789
65.357, 67.405, -160.133
66.307, 67.447, -160.720
67.272, 67.430, -161.281
68.250, 67.465, -161.336
69.243, 67.496, -162.725
70.250, 67.145, -162.896
71.272, 67.280, -160.602
72.309, 67.563, -162.746
73.360, 67.306, -164.294
74.427, 67.220, -164.126
75.510, 67.194, -164.110
76.608, 67.218, -164.555
77.723, 67.091, -164.085
78.853, 67.281, -163.689
80.000, 67.201, -164.918
81.164, 67.110, -164.671
82.344, 67.015, -164.911
83.542, 66.998, -164.453
84.757, 67.022, -164.687
85.990, 67.059, -164.404
87.241, 67.154, -164.529
88.510, 67.154, -164.050
89.797, 67.366, -163.731
91.103, 67.353, -164.470
92.428, 67.453, -164.320
93.773, 67.524, -165.257
95.137, 67.643, -166.618
96.520, 67.570, -167.405
97.924, 67.772, -168.116
99.349, 67.734, -169.081
100.794, 67.786, -170.309
102.260, 67.635, -170.263
103.747, 67.604, -171.874
105.256, 67.500, -171.898
106.787, 67.312, -173.022
108.340, 67.312, -173.483
109.916, 67.112, -173.107
111.515, 67.054, -173.695
113.137, 66.957, -172.905
114.783, 66.869, -172.804
116.452, 66.788, -173.100
118.146, 66.767, -172.274
119.865, 66.720, -172.555
121.608, 66.766, -171.853
123.377, 66.675, -170.403
125.171, 66.850, -171.919
126.992, 66.817, -170.282
128.839, 66.741, -170.303
130.713, 66.950, -170.914
132.615, 66.992, -170.644
134.543, 67.151, -170.821
136.500, 67.169, -170.924
138.486, 67.291, -172.175
140.500, 67.376, -172.069
142.544, 67.436, -172.849
144.617, 67.363, -172.242
146.721, 67.265, -173.611
148.855, 67.335, -174.984
151.020, 67.175, -175.148
153.217, 67.194, -176.101
155.445, 67.244, -174.539
157.706, 67.085, -174.778
160.000, 67.229, -175.341
162.327, 67.126, -174.962
164.688, 67.093, -175.146
167.084, 67.059, -175.820
169.514, 67.187, -176.898
171.980, 67.223, -176.017
174.481, 67.136, -176.677
177.019, 67.119, -176.312
179.594, 67.121, -177.252
182.206, 67.055, -176.530
184.856, 67.060, -176.717
187.545, 67.109, -177.125
190.273, 67.110, -177.072
193.041, 67.202, -176.905
195.849, 67.131, -176.967
198.697, 67.196, -178.049
201.587, 67.134, -177.971
204.520, 67.171, -178.197
207.494, 67.206, -178.677
210.512, 67.156, -179.397
213.574, 67.096, -179.230
216.681, 67.256, 179.961
219.833, 67.184, 179.916
223.030, 67.156, 179.250
226.274, 67.071, 178.891
229.565, 67.015, 178.543
232.905, 66.904, 178.383
236.292, 66.884, 179.309
239.729, 66.908, 179.125
243.216, 66.817, 179.195
246.754, 66.864, 178.681
250.343, 66.901, 178.660
253.984, 66.810, 178.378
257.678, 66.806, 178.602
261.426, 66.780, 178.190
265.229, 66.649, 178.664
269.087, 66.512, 177.566
273.001, 66.894, 178.019
276.972, 66.757, 177.722
281.000, 66.867, 177.279
285.088, 66.783, 177.253
289.234, 66.770, 177.499
293.441, 66.631, 177.872
297.710, 66.783, 176.292
302.040, 66.868, 177.029
306.433, 66.650, 176.607
310.890, 66.650, 176.559
315.412, 66.685, 176.268
320.000, 66.693, 176.254
324.655, 66.569, 175.755
329.377, 66.597, 175.931
334.168, 66.566, 175.509
339.028, 66.563, 175.070
343.959, 66.498, 174.855
348.962, 66.535, 174.654
354.038, 66.453, 174.795
359.188, 66.362, 174.469
364.412, 66.412, 174.194
369.713, 66.374, 174.816
375.090, 66.322, 175.412
380.546, 66.301, 174.452
386.081, 66.227, 174.440
391.697, 66.189, 173.929
397.395, 66.137, 174.580
403.175, 66.101, 173.292
409.039, 66.320, 173.317
414.989, 66.108, 174.502
421.025, 66.094, 173.254
427.149, 66.109, 173.680
433.362, 66.196, 173.611
439.665, 66.050, 173.413
446.060, 66.099, 172.520
452.548, 66.010, 173.535
459.131, 65.927, 173.030
465.809, 65.954, 173.047
472.584, 65.965, 172.942
479.458, 65.892, 172.691
486.432, 65.942, 172.336
493.507, 65.863, 171.916
500.686, 65.719, 172.105
507.968, 65.806, 171.906
515.357, 65.727, 171.440
522.853, 65.630, 171.147
530.458, 65.521, 170.527
538.174, 65.550, 170.371
546.002, 65.501, 170.217
553.943, 65.314, 170.102
562.001, 65.145, 169.637
570.175, 65.043, 170.290
578.469, 64.960, 170.742
586.883, 64.930, 171.014
595.419, 64.771, 169.632
604.080, 64.842, 171.492
612.866, 64.743, 171.980
621.780, 64.721, 171.943
630.824, 64.679, 171.837
640.000, 64.607, 171.804
649.309, 64.566, 172.425
658.753, 64.524, 172.654
668.335, 64.450, 172.221
678.056, 64.324, 172.401
687.919, 64.275, 172.149
697.925, 64.182, 172.737
708.076, 64.067, 172.765
718.376, 63.981, 173.692
728.825, 63.879, 173.758
739.426, 63.844, 174.371
750.181, 63.850, 174.964
761.093, 63.840, 174.942
772.163, 63.755, 174.790
783.394, 63.656, 175.047
794.789, 63.548, 175.438
806.349, 63.535, 175.510
818.078, 63.417, 175.814
829.977, 63.301, 176.230
842.050, 63.173, 176.566
854.297, 63.075, 177.217
866.724, 62.993, 177.935
879.330, 62.923, 178.600
892.120, 62.772, 179.673
905.097, 62.638, -179.996
918.262, 62.702, -178.423
931.618, 62.521, -177.814
945.169, 62.455, -176.813
958.917, 62.498, -175.791
972.864, 62.454, -174.665
987.015, 62.312, -173.297
1001.371, 62.407, -172.459
1015.937, 62.482, -172.245
1030.714, 62.345, -171.028
1045.706, 62.309, -170.336
1060.916, 62.405, -170.286
1076.347, 62.350, -169.662
1092.003, 62.250, -168.699
1107.887, 62.101, -167.181
1124.001, 62.188, -166.491
1140.350, 61.973, -166.111
1156.937, 62.017, -164.787
1173.765, 61.856, -163.596
1190.838, 61.777, -162.463
1208.159, 61.509, -159.093
1225.732, 61.620, -157.155
1243.561, 61.753, -153.749
1261.649, 61.898, -152.175
1280.000, 62.134, -149.721
1298.618, 62.294, -148.332
1317.507, 62.484, -146.727
1336.670, 62.623, -146.081
1356.113, 62.794, -144.208
1375.838, 62.913, -142.872
1395.850, 63.174, -141.684
1416.153, 63.301, -140.048
1436.751, 63.394, -139.237
1457.649, 63.517, -135.939
1478.851, 63.916, -134.108
1500.362, 64.334, -131.459
1522.185, 64.979, -130.355
1544.326, 65.474, -132.246
1566.789, 65.668, -132.434
1589.578, 65.883, -132.286
1612.699, 66.121, -131.065
1636.156, 66.443, -130.264
1659.955, 66.910, -129.947
1684.099, 67.319, -130.174
1708.595, 67.669, -130.619
1733.447, 68.004, -130.709
1758.661, 68.422, -131.502
1784.241, 68.821, -132.047
1810.193, 69.261, -133.457
1836.523, 69.524, -135.576
1863.236, 69.516, -133.826
1890.338, 70.274, -135.400
1917.833, 70.735, -138.040
1945.729, 71.077, -139.969
1974.030, 71.415, -142.526
2002.743, 71.634, -145.617
2031.873, 71.863, -148.462
2061.428, 71.882, -151.781
2091.412, 72.012, -154.355
2121.832, 72.174, -157.315
2152.695, 72.177, -160.062
2184.007, 72.211, -163.587
2215.774, 72.034, -166.945
2248.003, 71.864, -169.788
2280.701, 71.571, -172.556
2313.874, 71.282, -174.771
2347.530, 70.973, -176.919
2381.676, 70.581, -178.346
2416.318, 70.211, -179.104
2451.464, 69.893, -179.574
2487.122, 69.612, -179.946
2523.298, 69.274, 179.417
2560.000, 68.879, 179.513
2597.236, 68.526, -179.742
2635.014, 68.253, -178.707
2673.341, 68.090, -178.299
2712.226, 67.731, -177.723
2751.676, 67.386, -175.993
2791.700, 67.204, -173.507
2832.306, 67.022, -171.022
2873.503, 66.921, -167.908
2915.299, 67.081, -165.393
2957.703, 67.280, -163.170
3000.724, 67.462, -161.484
3044.370, 67.747, -160.486
3088.652, 67.924, -159.714
3133.577, 68.179, -158.905
3179.156, 68.330, -158.143
3225.398, 68.485, -157.304
3272.312, 68.619, -156.087
3319.909, 68.993, -154.095
3368.198, 69.615, -154.198
3417.190, 70.036, -155.996
3466.894, 70.244, -157.930
3517.321, 70.325, -158.080
3568.482, 70.665, -159.672
3620.387, 70.804, -161.139
3673.046, 70.925, -162.341
3726.472, 70.996, -162.905
3780.675, 71.233, -163.836
3835.666, 71.465, -165.473
3891.457, 71.631, -167.604
3948.060, 71.695, -170.089
4005.486, 71.647, -172.200
4063.747, 71.567, -173.528
4122.855, 71.568, -175.043
4182.824, 71.518, -176.730
4243.664, 71.426, -178.281
4305.390, 71.318, -179.877
4368.013, 71.134, 178.450
4431.547, 70.845, 177.401
4496.005, 70.574, 177.228
4561.401, 70.379, 177.560
4627.749, 70.210, 177.917
4695.061, 70.058, 178.779
4763.352, 69.997, -179.911
4832.637, 70.059, -178.600
4902.929, 70.213, -177.558
4974.244, 70.468, -177.200
5046.596, 70.711, -177.450
5120.000, 70.934, -178.375
5194.472, 71.100, -179.401
5270.027, 71.245, 179.370
5346.682, 71.368, 178.052
5424.451, 71.446, 176.652
5503.352, 71.540, 175.556
5583.399, 71.687, 174.178
5664.612, 71.851, 172.294
5747.006, 71.968, 169.809
5830.598, 72.006, 166.846
5915.406, 71.909, 163.816
6001.447, 71.716, 161.029
6088.740, 71.455, 158.680
6177.303, 71.147, 156.997
6267.154, 70.857, 155.850
6358.312, 70.595, 155.077
6450.796, 70.403, 154.525
6544.625, 70.259, 154.238
6639.818, 70.149, 153.413
6736.397, 70.109, 152.621
6834.380, 70.017, 151.777
6933.789, 69.998, 150.256
7034.643, 69.998, 148.741
7136.964, 69.967, 146.527
7240.773, 69.908, 143.483
7346.093, 69.776, 139.883
7452.944, 69.375, 135.739
7561.350, 68.797, 132.221
7671.332, 68.124, 130.043
7782.915, 67.436, 128.659
7896.120, 66.795, 127.745
8010.971, 66.177, 127.001
8127.493, 65.467, 126.371
8245.711, 64.653, 126.773
8365.647, 63.880, 128.702
8487.328, 63.298, 131.645
8610.779, 62.964, 135.096
8736.026, 63.282, 137.751
8863.095, 62.828, 134.344
8992.011, 62.319, 133.832
9122.803, 61.609, 133.373
9255.497, 60.753, 134.400
9390.121, 59.933, 137.047
9526.704, 59.245, 140.673
9665.273, 58.611, 144.646
9805.857, 57.942, 149.301
9948.487, 57.230, 155.462
10093.191, 56.584, 165.051
10240.000, 56.611, 178.793
10388.944, 57.984, -167.188
10540.055, 60.545, -161.586
10693.363, 62.737, -167.925
10848.902, 63.549, -177.328
11006.703, 63.730, 176.376
11166.799, 63.988, 172.465
11329.224, 64.544, 167.383
11494.012, 65.135, 158.172
11661.195, 65.132, 143.881
11830.812, 63.811, 127.555
12002.895, 61.006, 116.362
12177.480, 57.409, 117.360
12354.606, 55.242, 134.402
12534.309, 56.022, 143.457
12716.624, 55.815, 137.066
12901.592, 53.634, 131.591
13089.250, 49.887, 138.009
13279.637, 47.474, 172.497
13472.794, 50.528, -162.435
13668.760, 53.178, -160.088
13867.577, 54.434, -160.838
14069.285, 57.772, -165.580
14273.928, 57.419, 169.102
14481.547, 55.351, 151.740
14692.186, 52.083, 143.389
14905.889, 48.059, 136.678
15122.700, 39.704, 129.986
15342.664, 36.084, -65.963
15565.829, 46.738, -68.889
15792.239, 51.442, -74.649
16021.942, 54.294, -81.098
16254.986, 56.606, -84.775
16491.422, 59.297, -91.565
16731.295, 61.352, -106.699
16974.656, 62.147, -122.949
17221.559, 62.356, -138.438
17472.053, 61.586, -154.013
17726.189, 60.235, -164.594
17984.021, 58.680, -173.192
18245.605, 56.238, -178.402
18510.994, 53.425, -169.325
18780.242, 53.846, -148.868
19053.408, 55.866, -151.898
19330.547, 56.150, -160.612
19611.715, 55.799, -169.175
19896.975, 54.870, -178.309
