* Measurement data measured by REW V5.19
* Source: ASIO MOTU M Series, In 1
* Format: 1M Log Swept Sine, 2 sweeps at -3.0 dBFS  With no timing reference
* Dated: 23 Sep, 2020 7:24:53 PM
* REW Settings:
*  C-weighting compensation: Off
*  Target level: 75.0 dB
* Note: ; 
* Measurement: Sep 23 19:24:53
* Smoothing: None
* Frequency Step: 1/48 octave
* Start Frequency: 10.1 Hz
*
* Freq(Hz), SPL(dB), Phase(degrees)
10.145, 61.772, 88.569
10.293, 61.884, 87.506
10.443, 61.997, 86.304
10.595, 62.098, 85.164
10.749, 62.191, 83.992
10.905, 62.275, 82.808
11.064, 62.350, 81.614
11.225, 62.418, 80.434
11.388, 62.477, 79.267
11.554, 62.530, 78.130
11.722, 62.579, 77.021
11.892, 62.625, 75.939
12.065, 62.667, 74.885
12.241, 62.709, 73.847
12.419, 62.748, 72.826
12.599, 62.784, 71.812
12.782, 62.815, 70.811
12.968, 62.840, 69.827
13.157, 62.858, 68.881
13.348, 62.867, 67.984
13.543, 62.872, 67.168
13.740, 62.873, 66.446
13.939, 62.876, 65.836
14.142, 62.886, 65.328
14.348, 62.910, 64.915
14.557, 62.951, 64.537
14.768, 63.012, 64.170
14.983, 63.089, 63.735
15.201, 63.176, 63.205
15.422, 63.269, 62.550
15.646, 63.353, 61.775
15.874, 63.425, 60.913
16.105, 63.478, 59.999
16.339, 63.512, 59.106
16.577, 63.532, 58.272
16.818, 63.542, 57.526
17.063, 63.553, 56.878
17.311, 63.570, 56.287
17.563, 63.596, 55.712
17.818, 63.629, 55.105
18.077, 63.664, 54.427
18.340, 63.690, 53.691
18.607, 63.703, 52.939
18.877, 63.702, 52.235
19.152, 63.692, 51.648
19.431, 63.688, 51.217
19.713, 63.707, 50.901
20.000, 63.758, 50.597
20.291, 63.842, 50.170
20.586, 63.944, 49.493
20.885, 64.040, 48.508
21.189, 64.100, 47.268
21.497, 64.102, 45.940
21.810, 64.044, 44.752
22.127, 63.940, 43.925
22.449, 63.825, 43.593
22.776, 63.740, 43.733
23.107, 63.715, 44.153
23.443, 63.757, 44.580
23.784, 63.844, 44.796
24.130, 63.943, 44.738
24.481, 64.030, 44.484
24.837, 64.097, 44.154
25.198, 64.152, 43.808
25.565, 64.201, 43.415
25.937, 64.238, 42.912
26.314, 64.245, 42.307
26.697, 64.208, 41.731
27.085, 64.138, 41.380
27.479, 64.070, 41.348
27.879, 64.042, 41.497
28.284, 64.064, 41.519
28.696, 64.103, 41.188
29.113, 64.113, 40.558
29.537, 64.075, 39.935
29.966, 64.023, 39.591
30.402, 64.010, 39.495
30.844, 64.061, 39.308
31.293, 64.139, 38.699
31.748, 64.176, 37.696
32.210, 64.127, 36.712
32.678, 64.008, 36.348
33.154, 63.903, 37.012
33.636, 63.944, 38.531
34.125, 64.208, 39.964
34.621, 64.617, 40.226
35.125, 64.984, 39.043
35.636, 65.177, 37.183
36.154, 65.214, 35.756
36.680, 65.242, 35.083
37.214, 65.355, 34.360
37.755, 65.446, 32.769
38.304, 65.349, 30.788
38.861, 65.078, 29.872
39.427, 64.872, 30.526
40.000, 64.907, 31.360
40.582, 65.019, 30.820
41.172, 64.963, 29.549
41.771, 64.756, 29.169
42.379, 64.635, 29.991
42.995, 64.676, 30.542
43.620, 64.677, 30.348
44.255, 64.585, 30.634
44.898, 64.608, 31.588
45.552, 64.770, 31.496
46.214, 64.778, 29.973
46.886, 64.517, 28.843
47.568, 64.204, 29.171
48.260, 63.991, 30.171
48.962, 63.852, 31.394
49.674, 63.827, 32.741
50.397, 63.893, 33.580
51.130, 63.963, 34.092
51.874, 64.066, 34.412
52.628, 64.112, 34.251
53.394, 64.032, 34.942
54.170, 64.126, 36.885
54.958, 64.403, 37.610
55.758, 64.468, 37.532
56.569, 64.484, 39.188
57.391, 64.825, 40.863
58.226, 65.184, 40.437
59.073, 65.358, 39.764
59.932, 65.559, 39.306
60.804, 65.728, 38.329
61.688, 65.877, 37.682
62.586, 66.116, 36.389
63.496, 66.199, 34.067
64.420, 66.096, 32.142
65.357, 65.879, 31.016
66.307, 65.695, 31.357
67.272, 65.724, 31.494
68.250, 65.666, 30.798
69.243, 65.532, 30.840
70.250, 65.413, 31.507
71.272, 65.369, 33.138
72.309, 65.555, 34.596
73.360, 65.696, 34.134
74.427, 65.464, 34.350
75.510, 65.402, 36.927
76.608, 65.585, 38.255
77.723, 65.626, 38.547
78.853, 65.576, 40.379
80.000, 65.930, 41.694
81.164, 65.969, 41.422
82.344, 66.174, 43.226
83.542, 66.396, 43.288
84.757, 66.653, 44.008
85.990, 66.802, 43.834
87.241, 67.120, 44.621
88.510, 67.321, 43.558
89.797, 67.716, 43.770
91.103, 67.867, 40.398
92.428, 67.994, 40.743
93.773, 68.045, 38.957
95.137, 68.578, 40.093
96.520, 68.527, 36.816
97.924, 68.708, 38.136
99.349, 68.663, 38.642
100.794, 68.992, 38.234
102.260, 68.922, 38.098
103.747, 69.023, 37.497
105.256, 69.156, 37.905
106.787, 69.489, 36.416
108.340, 69.585, 35.377
109.916, 69.796, 34.420
111.515, 69.899, 33.669
113.137, 70.140, 32.135
114.783, 70.256, 31.158
116.452, 70.277, 28.623
118.146, 70.426, 27.688
119.865, 70.373, 27.192
121.608, 70.542, 25.882
123.377, 70.612, 24.398
125.171, 70.663, 23.808
126.992, 70.527, 21.881
128.839, 70.709, 20.717
130.713, 70.474, 19.605
132.615, 70.643, 18.850
134.543, 70.621, 19.101
136.500, 70.586, 18.816
138.486, 70.617, 17.711
140.500, 70.658, 17.131
142.544, 70.752, 15.361
144.617, 70.662, 14.554
146.721, 70.601, 13.325
148.855, 70.720, 12.241
151.020, 70.647, 11.007
153.217, 70.572, 9.553
155.445, 70.565, 9.298
157.706, 70.536, 8.467
160.000, 70.430, 8.097
162.327, 70.256, 8.050
164.688, 70.219, 6.502
167.084, 70.235, 5.559
169.514, 70.193, 4.998
171.980, 70.115, 4.322
174.481, 70.000, 4.150
177.019, 69.959, 4.026
179.594, 69.892, 3.262
182.206, 69.956, 2.946
184.856, 69.889, 2.457
187.545, 69.835, 1.913
190.273, 69.799, 1.232
193.041, 69.743, 0.298
195.849, 69.681, -0.142
198.697, 69.629, -0.197
201.587, 69.574, -0.862
204.520, 69.492, -1.570
207.494, 69.414, -1.652
210.512, 69.289, -2.178
213.574, 69.266, -2.636
216.681, 69.161, -2.891
219.833, 69.058, -2.922
223.030, 68.994, -3.089
226.274, 68.903, -3.355
229.565, 68.845, -3.550
232.905, 68.777, -3.831
236.292, 68.700, -4.094
239.729, 68.610, -3.737
243.216, 68.517, -3.837
246.754, 68.477, -3.841
250.343, 68.435, -3.860
253.984, 68.378, -3.876
257.678, 68.318, -3.925
261.426, 68.266, -3.975
265.229, 68.226, -4.172
269.087, 68.169, -4.270
273.001, 68.105, -4.328
276.972, 68.051, -4.397
281.000, 67.998, -4.245
285.088, 67.944, -4.235
289.234, 67.869, -4.202
293.441, 67.833, -4.237
297.710, 67.784, -4.158
302.040, 67.712, -4.029
306.433, 67.669, -4.134
310.890, 67.617, -4.031
315.412, 67.569, -3.983
320.000, 67.524, -3.958
324.655, 67.473, -3.769
329.377, 67.417, -3.665
334.168, 67.351, -3.519
339.028, 67.329, -3.355
343.959, 67.280, -3.271
348.962, 67.239, -2.956
354.038, 67.199, -2.804
359.188, 67.157, -2.517
364.412, 67.138, -2.374
369.713, 67.097, -2.011
375.090, 67.094, -1.999
380.546, 67.053, -1.851
386.081, 67.022, -1.768
391.697, 67.001, -1.653
397.395, 66.981, -1.554
403.175, 66.955, -1.515
409.039, 66.917, -1.502
414.989, 66.877, -1.473
421.025, 66.824, -1.427
427.149, 66.760, -1.389
433.362, 66.667, -1.338
439.665, 66.549, -1.137
446.060, 66.397, -0.485
452.548, 66.254, 0.795
459.131, 66.263, 2.842
465.809, 66.442, 4.112
472.584, 66.689, 4.753
479.458, 66.820, 4.049
486.432, 66.873, 3.499
493.507, 66.850, 3.178
500.686, 66.813, 2.964
507.968, 66.800, 2.913
515.357, 66.768, 2.810
522.853, 66.669, 3.049
530.458, 66.713, 3.388
538.174, 66.718, 3.519
546.002, 66.706, 3.520
553.943, 66.665, 3.669
562.001, 66.607, 3.877
570.175, 66.641, 4.196
578.469, 66.640, 4.334
586.883, 66.623, 4.572
595.419, 66.606, 4.740
604.080, 66.605, 4.887
612.866, 66.588, 5.004
621.780, 66.582, 5.270
630.824, 66.562, 5.478
640.000, 66.556, 5.597
649.309, 66.559, 5.852
658.753, 66.558, 6.007
668.335, 66.541, 6.267
678.056, 66.537, 6.404
687.919, 66.525, 6.648
697.925, 66.520, 6.891
708.076, 66.508, 7.021
718.376, 66.504, 7.221
728.825, 66.494, 7.528
739.426, 66.481, 7.730
750.181, 66.479, 7.940
761.093, 66.479, 8.169
772.163, 66.467, 8.426
783.394, 66.463, 8.647
794.789, 66.453, 8.877
806.349, 66.444, 9.105
818.078, 66.444, 9.352
829.977, 66.431, 9.545
842.050, 66.420, 9.839
854.297, 66.418, 10.079
866.724, 66.392, 10.342
879.330, 66.390, 10.646
892.120, 66.381, 10.897
905.097, 66.367, 11.189
918.262, 66.348, 11.484
931.618, 66.339, 11.790
945.169, 66.323, 12.095
958.917, 66.309, 12.447
972.864, 66.293, 12.832
987.015, 66.287, 13.236
1001.371, 66.272, 13.594
1015.937, 66.260, 14.022
1030.714, 66.246, 14.431
1045.706, 66.240, 14.912
1060.916, 66.221, 15.374
1076.347, 66.214, 15.906
1092.003, 66.204, 16.440
1107.887, 66.207, 17.006
1124.001, 66.202, 17.557
1140.350, 66.199, 18.138
1156.937, 66.200, 18.773
1173.765, 66.191, 19.441
1190.838, 66.205, 20.269
1208.159, 66.228, 21.035
1225.732, 66.246, 21.843
1243.561, 66.291, 22.647
1261.649, 66.343, 23.461
1280.000, 66.391, 24.185
1298.618, 66.435, 24.872
1317.507, 66.465, 25.702
1336.670, 66.453, 26.895
1356.113, 66.554, 28.691
1375.838, 66.754, 30.040
1395.850, 66.964, 31.006
1416.153, 67.167, 31.735
1436.751, 67.388, 32.442
1457.649, 67.617, 33.032
1478.851, 67.876, 33.510
1500.362, 68.151, 33.738
1522.185, 68.436, 33.738
1544.326, 68.730, 33.499
1566.789, 69.019, 32.944
1589.578, 69.295, 32.096
1612.699, 69.553, 31.030
1636.156, 69.787, 29.747
1659.955, 70.005, 28.295
1684.099, 70.203, 26.643
1708.595, 70.372, 24.758
1733.447, 70.510, 22.740
1758.661, 70.625, 20.460
1784.241, 70.698, 17.928
1810.193, 70.717, 15.198
1836.523, 70.672, 12.272
1863.236, 70.554, 9.242
1890.338, 70.352, 6.213
1917.833, 70.082, 3.292
1945.729, 69.743, 0.425
1974.030, 69.318, -2.334
2002.743, 68.813, -4.970
2031.873, 68.191, -7.411
2061.428, 67.449, -9.312
2091.412, 66.605, -10.477
2121.832, 65.685, -10.842
2152.695, 64.679, -10.400
2184.007, 63.580, -8.815
2215.774, 62.412, -5.656
2248.003, 61.226, -0.551
2280.701, 60.139, 7.055
2313.874, 59.322, 16.883
2347.530, 58.939, 28.313
2381.676, 59.073, 39.609
2416.318, 59.587, 49.562
2451.464, 60.431, 57.823
2487.122, 61.391, 62.149
2523.298, 61.953, 64.563
2560.000, 62.218, 67.544
2597.236, 62.310, 72.036
2635.014, 62.463, 79.016
2673.341, 62.980, 88.151
2712.226, 64.147, 97.289
2751.676, 65.804, 103.349
2791.700, 67.570, 105.722
2832.306, 69.158, 105.106
2873.503, 70.496, 102.791
2915.299, 71.569, 99.903
2957.703, 72.548, 97.155
3000.724, 73.391, 94.120
3044.370, 74.193, 91.114
3088.652, 74.987, 87.861
3133.577, 75.759, 83.768
3179.156, 76.405, 78.991
3225.398, 76.905, 73.841
3272.312, 77.274, 68.575
3319.909, 77.481, 63.208
3368.198, 77.516, 58.233
3417.190, 77.393, 54.115
3466.894, 77.181, 51.164
3517.321, 76.952, 49.684
3568.482, 76.824, 49.950
3620.387, 77.033, 51.528
3673.046, 77.726, 52.055
3726.472, 78.589, 49.068
3780.675, 79.172, 43.362
3835.666, 79.377, 37.088
3891.457, 79.325, 31.485
3948.060, 79.142, 26.797
4005.486, 78.900, 22.969
4063.747, 78.641, 19.881
4122.855, 78.402, 17.486
4182.824, 78.236, 15.456
4243.664, 78.142, 13.239
4305.390, 78.053, 10.573
4368.013, 77.876, 7.935
4431.547, 77.715, 4.949
4496.005, 77.375, 2.292
4561.401, 77.071, 0.269
4627.749, 76.862, -1.457
4695.061, 76.455, -3.219
4763.352, 76.161, -3.736
4832.637, 76.027, -4.328
4902.929, 75.960, -5.570
4974.244, 75.894, -7.434
5046.596, 75.800, -9.902
5120.000, 75.627, -12.992
5194.472, 75.301, -16.585
5270.027, 74.755, -20.100
5346.682, 73.948, -22.522
5424.451, 73.001, -22.325
5503.352, 72.285, -19.097
5583.399, 72.102, -14.864
5664.612, 72.385, -12.459
5747.006, 72.791, -13.302
5830.598, 72.978, -16.710
5915.406, 72.806, -21.167
6001.447, 72.276, -25.038
6088.740, 71.553, -27.054
6177.303, 70.919, -27.355
6267.154, 70.414, -27.602
6358.312, 69.882, -28.101
6450.796, 69.251, -28.159
6544.625, 68.586, -27.030
6639.818, 68.026, -24.582
6736.397, 67.706, -21.471
6834.380, 67.637, -18.706
6933.789, 67.753, -16.929
7034.643, 68.021, -16.535
7136.964, 68.441, -18.126
7240.773, 68.805, -23.550
7346.093, 68.661, -33.004
7452.944, 67.593, -44.112
7561.350, 65.416, -53.040
7671.332, 62.324, -55.629
7782.915, 58.646, -48.157
7896.120, 55.363, -22.706
8010.971, 56.298, 12.446
8127.493, 59.277, 26.552
8245.711, 61.708, 30.105
8365.647, 63.789, 27.625
8487.328, 65.264, 19.973
8610.779, 65.949, 9.867
8736.026, 66.210, -0.730
8863.095, 65.421, -12.407
8992.011, 64.314, -23.228
9122.803, 61.925, -34.971
9255.497, 57.643, -36.136
9390.121, 53.934, -12.286
9526.704, 54.323, 15.384
9665.273, 55.968, 27.856
9805.857, 57.275, 31.762
9948.487, 57.753, 31.423
10093.191, 57.067, 33.640
10240.000, 56.336, 51.267
10388.944, 59.650, 72.134
10540.055, 64.114, 65.890
10693.363, 66.245, 45.066
10848.902, 66.207, 27.228
11006.703, 65.678, 16.133
11166.799, 65.325, 7.629
11329.224, 65.165, -2.362
11494.012, 64.667, -15.736
11661.195, 63.390, -29.599
11830.812, 61.580, -41.044
12002.895, 59.599, -50.008
12177.480, 57.732, -57.624
12354.606, 56.399, -67.490
12534.309, 55.314, -91.224
12716.624, 52.094, -131.191
12901.592, 48.279, -173.933
13089.250, 48.191, 148.791
13279.637, 50.859, 117.497
13472.794, 53.432, 87.949
13668.760, 54.630, 55.957
13867.577, 54.321, 23.907
14069.285, 51.919, -14.323
14273.928, 42.654, -38.468
14481.547, 42.567, 41.399
14692.186, 50.023, 22.307
14905.889, 53.858, -13.403
15122.700, 56.367, -54.763
15342.664, 57.053, -100.798
15565.829, 55.130, -138.869
15792.239, 52.089, -155.982
16021.942, 50.943, -159.548
16254.986, 50.073, -169.176
16491.422, 47.849, -164.471
16731.295, 49.179, -153.183
16974.656, 51.779, -155.309
17221.559, 53.141, -175.588
17472.053, 52.058, 161.180
17726.189, 47.463, 146.216
17984.021, 44.068, 172.695
18245.605, 45.707, -179.564
18510.994, 44.645, 173.177
18780.242, 43.125, -178.010
19053.408, 41.210, -175.819
19330.547, 38.818, -150.531
19611.715, 40.882, -117.746
19896.975, 45.455, -110.793
