* Measurement data measured by REW V5.19
* Source: ASIO MOTU M Series, In 1
* Format: 512k Log Swept Sine, 2 sweeps at -10.0 dBFS  With no timing reference
* Dated: 10 Sep, 2020 7:10:23 PM
* REW Settings:
*  C-weighting compensation: Off
*  Target level: 75.0 dB
* Note: ; 
* Measurement: Sep 10 19:10:23
* Smoothing: None
* Frequency Step: 1/48 octave
* Start Frequency: 10.1 Hz
*
* Freq(Hz), SPL(dB), Phase(degrees)
10.145, 66.755, -48.763
10.293, 66.892, -50.115
10.443, 67.031, -51.600
10.595, 67.161, -52.925
10.749, 67.287, -54.246
10.905, 67.408, -55.562
11.064, 67.523, -56.871
11.225, 67.633, -58.166
11.388, 67.736, -59.446
11.554, 67.834, -60.693
11.722, 67.926, -61.908
11.892, 68.014, -63.070
12.065, 68.100, -64.182
12.241, 68.188, -65.235
12.419, 68.278, -66.234
12.599, 68.376, -67.195
12.782, 68.483, -68.132
12.968, 68.600, -69.074
13.157, 68.725, -70.044
13.348, 68.859, -71.065
13.543, 68.995, -72.150
13.740, 69.132, -73.305
13.939, 69.264, -74.513
14.142, 69.391, -75.760
14.348, 69.509, -77.018
14.557, 69.623, -78.259
14.768, 69.732, -79.471
14.983, 69.844, -80.646
15.201, 69.961, -81.804
15.422, 70.085, -82.961
15.646, 70.215, -84.163
15.874, 70.347, -85.426
16.105, 70.475, -86.767
16.339, 70.591, -88.166
16.577, 70.690, -89.579
16.818, 70.769, -90.962
17.063, 70.831, -92.240
17.311, 70.884, -93.367
17.563, 70.936, -94.334
17.818, 70.999, -95.152
18.077, 71.081, -95.886
18.340, 71.181, -96.621
18.607, 71.293, -97.416
18.877, 71.408, -98.307
19.152, 71.513, -99.287
19.431, 71.598, -100.294
19.713, 71.663, -101.246
20.000, 71.715, -102.078
20.291, 71.766, -102.759
20.586, 71.829, -103.315
20.885, 71.916, -103.831
21.189, 72.026, -104.430
21.497, 72.147, -105.215
21.810, 72.259, -106.218
22.127, 72.343, -107.374
22.449, 72.387, -108.541
22.776, 72.400, -109.549
23.107, 72.405, -110.275
23.443, 72.438, -110.737
23.784, 72.527, -111.120
24.130, 72.671, -111.704
24.481, 72.839, -112.701
24.837, 72.986, -114.114
25.198, 73.076, -115.727
25.565, 73.109, -117.223
25.937, 73.117, -118.375
26.314, 73.147, -119.197
26.697, 73.223, -119.936
27.085, 73.327, -120.857
27.479, 73.413, -121.981
27.879, 73.456, -123.046
28.284, 73.479, -123.762
28.696, 73.538, -124.119
29.113, 73.664, -124.473
29.537, 73.823, -125.212
29.966, 73.943, -126.322
30.402, 73.996, -127.401
30.844, 74.023, -128.070
31.293, 74.103, -128.463
31.748, 74.251, -129.153
32.210, 74.390, -130.508
32.678, 74.428, -132.221
33.154, 74.360, -133.627
33.636, 74.277, -134.350
34.125, 74.267, -134.723
34.621, 74.318, -135.332
35.125, 74.354, -136.271
35.636, 74.350, -137.134
36.154, 74.361, -137.671
36.680, 74.433, -138.171
37.214, 74.542, -139.030
37.755, 74.627, -140.235
38.304, 74.664, -141.514
38.861, 74.668, -142.664
39.427, 74.654, -143.620
40.000, 74.642, -144.359
40.582, 74.653, -144.978
41.172, 74.683, -145.670
41.771, 74.705, -146.464
42.379, 74.713, -147.212
42.995, 74.731, -147.889
43.620, 74.762, -148.648
44.255, 74.785, -149.529
44.898, 74.789, -150.438
45.552, 74.777, -151.264
46.214, 74.766, -151.901
46.886, 74.791, -152.442
47.568, 74.847, -153.240
48.260, 74.867, -154.320
48.962, 74.838, -155.252
49.674, 74.813, -155.913
50.397, 74.804, -156.524
51.130, 74.799, -157.074
51.874, 74.811, -157.575
52.628, 74.830, -158.107
53.394, 74.865, -158.589
54.170, 74.926, -159.264
54.958, 74.947, -160.178
55.758, 74.935, -160.772
56.569, 74.978, -161.244
57.391, 75.030, -162.037
58.226, 75.066, -162.844
59.073, 75.124, -163.819
59.932, 75.147, -165.111
60.804, 75.118, -166.318
61.688, 75.078, -167.238
62.586, 75.081, -168.028
63.496, 75.092, -169.198
64.420, 75.034, -170.367
65.357, 74.976, -171.239
66.307, 74.926, -172.250
67.272, 74.825, -173.396
68.250, 74.652, -173.945
69.243, 74.638, -173.789
70.250, 74.704, -174.983
71.272, 74.602, -176.167
72.309, 74.535, -176.883
73.360, 74.439, -177.515
74.427, 74.381, -177.908
75.510, 74.291, -178.200
76.608, 74.306, -178.452
77.723, 74.210, -179.567
78.853, 74.073, -179.517
80.000, 74.092, -179.961
81.164, 73.974, 179.061
82.344, 73.877, 179.157
83.542, 73.881, 178.257
84.757, 73.647, 177.913
85.990, 73.680, 178.277
87.241, 73.531, 177.267
88.510, 73.428, 177.812
89.797, 73.350, 177.941
91.103, 73.374, 177.294
92.428, 73.064, 177.561
93.773, 73.159, 177.882
95.137, 73.021, 177.668
96.520, 73.050, 177.466
97.924, 72.975, 177.629
99.349, 73.057, 177.909
100.794, 73.060, 178.310
102.260, 72.954, 178.171
103.747, 72.967, 179.729
105.256, 72.777, 179.528
106.787, 72.940, -179.536
108.340, 72.969, 179.694
109.916, 73.141, -179.986
111.515, 73.267, 179.574
113.137, 73.409, 179.471
114.783, 73.436, 179.875
116.452, 73.476, 179.424
118.146, 73.645, 179.745
119.865, 73.803, 178.665
121.608, 74.133, 178.075
123.377, 74.474, 176.105
125.171, 74.713, 172.099
126.992, 74.268, 164.911
128.839, 72.994, 164.797
130.713, 72.506, 169.686
132.615, 72.866, 172.426
134.543, 72.956, 174.107
136.500, 73.073, 174.767
138.486, 73.260, 174.591
140.500, 73.404, 175.527
142.544, 73.583, 174.541
144.617, 73.631, 174.001
146.721, 73.788, 173.122
148.855, 73.877, 172.244
151.020, 73.970, 171.381
153.217, 74.083, 170.665
155.445, 74.082, 170.049
157.706, 74.128, 168.695
160.000, 74.242, 167.593
162.327, 74.422, 166.820
164.688, 74.398, 165.564
167.084, 74.385, 164.846
169.514, 74.374, 163.890
171.980, 74.447, 162.523
174.481, 74.472, 161.407
177.019, 74.526, 160.282
179.594, 74.438, 158.329
182.206, 74.437, 156.595
184.856, 74.384, 155.091
187.545, 74.204, 154.239
190.273, 74.130, 154.178
193.041, 74.250, 153.399
195.849, 74.176, 152.348
198.697, 74.164, 149.970
201.587, 74.033, 148.096
204.520, 73.898, 146.442
207.494, 73.708, 145.602
210.512, 73.565, 145.261
213.574, 73.599, 143.518
216.681, 73.428, 143.104
219.833, 73.405, 141.341
223.030, 73.345, 139.051
226.274, 73.031, 138.583
229.565, 72.797, 137.101
232.905, 72.700, 135.448
236.292, 72.652, 133.562
239.729, 72.368, 132.351
243.216, 72.053, 131.204
246.754, 71.794, 130.792
250.343, 71.511, 129.211
253.984, 71.401, 128.491
257.678, 71.231, 127.009
261.426, 70.697, 125.031
265.229, 70.622, 124.797
269.087, 69.980, 125.424
273.001, 69.715, 123.877
276.972, 69.508, 123.233
281.000, 68.902, 123.790
285.088, 68.620, 124.194
289.234, 68.438, 123.255
293.441, 68.101, 122.378
297.710, 67.678, 122.688
302.040, 67.411, 123.074
306.433, 66.938, 123.334
310.890, 66.618, 123.121
315.412, 66.308, 124.226
320.000, 65.764, 124.802
324.655, 65.216, 125.172
329.377, 64.923, 126.828
334.168, 64.585, 128.812
339.028, 64.273, 131.167
343.959, 64.013, 132.325
348.962, 63.718, 135.761
354.038, 63.222, 136.367
359.188, 63.021, 139.121
364.412, 62.539, 142.367
369.713, 62.364, 144.293
375.090, 62.053, 147.959
380.546, 62.283, 151.784
386.081, 62.208, 151.462
391.697, 61.986, 155.912
397.395, 62.108, 158.836
403.175, 62.195, 160.158
409.039, 62.279, 162.718
414.989, 62.191, 165.454
421.025, 62.275, 166.346
427.149, 62.647, 168.938
433.362, 62.498, 170.673
439.665, 62.916, 171.611
446.060, 62.736, 175.280
452.548, 63.309, 176.056
459.131, 63.296, 176.204
465.809, 63.299, 178.723
472.584, 63.481, 178.775
479.458, 63.649, -179.451
486.432, 63.754, -178.293
493.507, 64.003, -178.298
500.686, 64.020, -178.478
507.968, 64.263, -177.430
515.357, 64.495, -175.854
522.853, 64.612, -176.202
530.458, 64.733, -175.555
538.174, 64.857, -175.867
546.002, 64.953, -175.042
553.943, 65.047, -175.307
562.001, 65.079, -175.207
570.175, 65.140, -175.660
578.469, 65.238, -175.166
586.883, 65.575, -175.981
595.419, 65.532, -175.029
604.080, 65.506, -174.582
612.866, 65.627, -175.632
621.780, 65.762, -175.330
630.824, 65.834, -175.648
640.000, 65.849, -175.377
649.309, 65.723, -176.233
658.753, 65.868, -176.220
668.335, 66.157, -176.314
678.056, 65.958, -176.051
687.919, 65.839, -176.610
697.925, 65.985, -175.933
708.076, 66.076, -177.057
718.376, 65.903, -176.849
728.825, 66.075, -176.872
739.426, 66.068, -176.276
750.181, 65.796, -177.517
761.093, 65.936, -178.008
772.163, 65.823, -177.113
783.394, 65.823, -177.108
794.789, 65.764, -177.161
806.349, 65.689, -177.311
818.078, 65.797, -177.663
829.977, 65.828, -177.446
842.050, 65.617, -177.465
854.297, 65.589, -177.706
866.724, 65.374, -176.996
879.330, 65.577, -177.410
892.120, 65.429, -176.044
905.097, 65.144, -176.171
918.262, 65.072, -175.884
931.618, 65.115, -176.137
945.169, 64.916, -175.690
958.917, 64.869, -175.312
972.864, 64.766, -175.198
987.015, 64.611, -173.687
1001.371, 64.622, -173.072
1015.937, 64.569, -172.007
1030.714, 64.455, -171.980
1045.706, 64.261, -170.964
1060.916, 64.065, -170.117
1076.347, 64.234, -168.764
1092.003, 63.864, -165.515
1107.887, 63.854, -163.775
1124.001, 64.149, -161.393
1140.350, 64.236, -160.667
1156.937, 64.491, -160.876
1173.765, 64.308, -159.612
1190.838, 64.391, -160.051
1208.159, 64.344, -160.433
1225.732, 64.480, -158.555
1243.561, 64.539, -157.551
1261.649, 64.243, -155.183
1280.000, 64.421, -155.750
1298.618, 64.519, -153.634
1317.507, 64.387, -152.074
1336.670, 64.428, -150.938
1356.113, 64.671, -148.184
1375.838, 64.795, -147.760
1395.850, 64.751, -146.292
1416.153, 64.758, -144.733
1436.751, 64.932, -142.846
1457.649, 65.082, -139.149
1478.851, 65.170, -137.044
1500.362, 65.432, -136.645
1522.185, 65.496, -132.910
1544.326, 65.903, -133.144
1566.789, 66.122, -130.041
1589.578, 66.689, -129.726
1612.699, 66.983, -127.976
1636.156, 67.388, -126.246
1659.955, 67.896, -126.103
1684.099, 68.194, -124.977
1708.595, 68.747, -125.176
1733.447, 69.079, -126.092
1758.661, 69.515, -125.673
1784.241, 69.995, -125.529
1810.193, 70.493, -126.729
1836.523, 70.758, -127.042
1863.236, 71.405, -130.135
1890.338, 71.753, -131.754
1917.833, 71.936, -132.860
1945.729, 72.195, -136.737
1974.030, 72.414, -138.225
2002.743, 72.728, -140.022
2031.873, 72.707, -140.945
2061.428, 72.766, -144.034
2091.412, 72.886, -146.289
2121.832, 72.918, -148.378
2152.695, 73.001, -151.130
2184.007, 72.952, -151.355
2215.774, 72.954, -153.755
2248.003, 72.945, -155.031
2280.701, 72.779, -156.407
2313.874, 72.921, -156.952
2347.530, 72.640, -158.694
2381.676, 72.720, -159.314
2416.318, 72.421, -159.548
2451.464, 72.481, -162.217
2487.122, 72.630, -162.393
2523.298, 72.344, -162.846
2560.000, 72.343, -163.188
2597.236, 72.239, -163.509
2635.014, 72.304, -164.229
2673.341, 72.167, -163.970
2712.226, 72.404, -165.593
2751.676, 72.232, -166.402
2791.700, 72.217, -166.890
2832.306, 72.382, -169.937
2873.503, 72.059, -171.731
2915.299, 72.289, -172.286
2957.703, 72.231, -175.088
3000.724, 71.900, -175.503
3044.370, 71.651, -176.621
3088.652, 71.593, -178.157
3133.577, 71.110, 179.111
3179.156, 71.127, 176.446
3225.398, 70.510, 175.233
3272.312, 70.625, 175.985
3319.909, 69.872, 175.232
3368.198, 69.178, 171.964
3417.190, 68.809, 172.740
3466.894, 68.011, 173.241
3517.321, 66.954, 172.726
3568.482, 66.253, 176.817
3620.387, 65.325, 179.674
3673.046, 64.679, -170.504
3726.472, 64.161, -158.613
3780.675, 64.150, -144.837
3835.666, 65.247, -137.429
3891.457, 65.032, -139.130
3948.060, 65.952, -127.625
4005.486, 66.963, -127.277
4063.747, 67.973, -124.946
4122.855, 68.102, -117.940
4182.824, 69.486, -112.886
4243.664, 71.505, -110.704
4305.390, 73.243, -117.145
4368.013, 73.762, -123.627
4431.547, 74.259, -128.015
4496.005, 74.405, -130.719
4561.401, 75.258, -136.570
4627.749, 75.158, -141.998
4695.061, 75.240, -145.312
4763.352, 75.283, -148.947
4832.637, 74.962, -152.331
4902.929, 74.536, -154.318
4974.244, 74.575, -153.601
5046.596, 74.823, -152.602
5120.000, 75.305, -154.941
5194.472, 75.481, -156.801
5270.027, 75.504, -159.883
5346.682, 75.323, -163.711
5424.451, 75.518, -162.617
5503.352, 75.443, -167.126
5583.399, 75.089, -168.383
5664.612, 75.162, -170.599
5747.006, 74.912, -170.366
5830.598, 74.526, -171.643
5915.406, 74.486, -171.998
6001.447, 74.647, -173.280
6088.740, 74.426, -172.903
6177.303, 74.761, -171.760
6267.154, 74.826, -172.396
6358.312, 75.155, -171.243
6450.796, 75.270, -174.068
6544.625, 75.791, -176.454
6639.818, 76.010, -179.737
6736.397, 76.117, 176.208
6834.380, 75.969, 171.818
6933.789, 76.006, 166.704
7034.643, 75.537, 163.488
7136.964, 75.718, 162.272
7240.773, 75.381, 156.939
7346.093, 75.189, 151.037
7452.944, 74.828, 145.299
7561.350, 73.863, 134.799
7671.332, 71.764, 137.628
7782.915, 70.939, 144.682
7896.120, 71.319, 148.205
8010.971, 70.811, 149.175
8127.493, 71.143, 147.365
8245.711, 71.027, 147.256
8365.647, 71.037, 145.510
8487.328, 71.266, 145.250
8610.779, 71.441, 138.600
8736.026, 71.924, 130.339
8863.095, 71.008, 119.311
8992.011, 69.717, 109.185
9122.803, 67.763, 98.597
9255.497, 65.510, 87.871
9390.121, 62.542, 82.519
9526.704, 57.498, 79.369
9665.273, 52.433, 82.256
9805.857, 42.869, 179.264
9948.487, 55.311, -134.093
10093.191, 58.479, -156.626
10240.000, 59.497, -168.592
10388.944, 58.875, -171.578
10540.055, 60.029, -164.384
10693.363, 59.286, -149.917
10848.902, 60.917, -147.026
11006.703, 61.454, -149.673
11166.799, 62.170, -151.747
11329.224, 62.239, -147.455
11494.012, 62.435, -153.158
11661.195, 62.574, -149.523
11830.812, 62.959, -146.469
12002.895, 64.015, -137.935
12177.480, 65.966, -134.481
12354.606, 68.332, -138.218
12534.309, 69.988, -150.866
12716.624, 70.808, -168.181
12901.592, 70.697, 176.625
13089.250, 69.955, 158.141
13279.637, 69.009, 143.622
13472.794, 67.626, 127.518
13668.760, 65.603, 111.583
13867.577, 62.139, 98.555
14069.285, 58.231, 92.301
14273.928, 53.463, 96.438
14481.547, 52.769, 91.663
14692.186, 46.516, 93.741
14905.889, 43.405, 86.964
15122.700, 46.167, -0.387
15342.664, 48.613, -64.650
15565.829, 50.127, -58.493
15792.239, 53.724, -55.697
16021.942, 57.957, -70.209
16254.986, 61.064, -88.825
16491.422, 61.097, -116.835
16731.295, 58.330, -118.044
16974.656, 59.245, -121.037
17221.559, 58.936, -123.031
17472.053, 58.900, -126.100
17726.189, 59.599, -128.082
17984.021, 59.918, -132.769
18245.605, 60.068, -140.428
18510.994, 59.960, -147.419
18780.242, 60.512, -150.340
19053.408, 60.237, -170.430
19330.547, 57.393, 177.883
19611.715, 56.081, -178.574
19896.975, 55.158, 179.457
