* Measurement data measured by REW V5.19
* Source: ASIO MOTU M Series, In 1
* Format: 1M Log Swept Sine, 1 sweep at -3.0 dBFS  With no timing reference
* Dated: 10 Dec, 2021 5:16:03 PM
* REW Settings:
*  C-weighting compensation: Off
*  Target level: 75.0 dB
* Note: ; 
* Measurement: Dec 10 17:16:03
* Smoothing: 1/48 octave
* Frequency Step: 1/48 octave
* Start Frequency: 10.1 Hz
*
* Freq(Hz), SPL(dB), Phase(degrees)
10.145, 63.217, -85.371
10.293, 63.269, -86.253
10.443, 63.323, -87.444
10.595, 63.398, -89.016
10.749, 63.468, -90.650
10.905, 63.506, -91.888
11.064, 63.527, -92.964
11.225, 63.549, -94.120
11.388, 63.570, -95.273
11.554, 63.590, -96.294
11.722, 63.609, -97.206
11.892, 63.637, -98.041
12.065, 63.674, -98.811
12.241, 63.725, -99.597
12.419, 63.789, -100.396
12.599, 63.862, -101.227
12.782, 63.940, -102.114
12.968, 64.019, -103.115
13.157, 64.093, -104.188
13.348, 64.155, -105.321
13.543, 64.202, -106.471
13.740, 64.233, -107.623
13.939, 64.249, -108.701
14.142, 64.254, -109.687
14.348, 64.255, -110.539
14.557, 64.263, -111.276
14.768, 64.281, -111.906
14.983, 64.319, -112.492
15.201, 64.375, -113.092
15.422, 64.448, -113.763
15.646, 64.526, -114.559
15.874, 64.601, -115.472
16.105, 64.663, -116.495
16.339, 64.704, -117.552
16.577, 64.726, -118.577
16.818, 64.731, -119.515
17.063, 64.729, -120.312
17.311, 64.734, -120.989
17.563, 64.750, -121.591
17.818, 64.783, -122.182
18.077, 64.826, -122.847
18.340, 64.867, -123.602
18.607, 64.897, -124.421
18.877, 64.909, -125.244
19.152, 64.905, -125.986
19.431, 64.896, -126.590
19.713, 64.897, -127.078
20.000, 64.915, -127.523
20.291, 64.948, -128.018
20.586, 64.986, -128.630
20.885, 65.012, -129.351
21.189, 65.014, -130.088
21.497, 64.996, -130.710
21.810, 64.974, -131.140
22.127, 64.971, -131.409
22.449, 64.998, -131.648
22.776, 65.050, -132.004
23.107, 65.105, -132.544
23.443, 65.141, -133.205
23.784, 65.154, -133.839
24.130, 65.159, -134.324
24.481, 65.179, -134.669
24.837, 65.230, -135.022
25.198, 65.300, -135.555
25.565, 65.361, -136.326
25.937, 65.387, -137.215
26.314, 65.374, -138.014
26.697, 65.347, -138.570
27.085, 65.338, -138.915
27.479, 65.360, -139.233
27.879, 65.400, -139.705
28.284, 65.430, -140.356
28.696, 65.432, -141.065
29.113, 65.410, -141.676
29.537, 65.384, -142.137
29.966, 65.367, -142.511
30.402, 65.361, -142.892
30.844, 65.355, -143.314
31.293, 65.343, -143.746
31.748, 65.326, -144.149
32.210, 65.309, -144.515
32.678, 65.294, -144.853
33.154, 65.280, -145.164
33.636, 65.271, -145.447
34.125, 65.269, -145.728
34.621, 65.269, -146.040
35.125, 65.264, -146.371
35.636, 65.252, -146.663
36.154, 65.243, -146.890
36.680, 65.242, -147.126
37.214, 65.237, -147.461
37.755, 65.205, -147.829
38.304, 65.147, -148.052
38.861, 65.090, -148.064
39.427, 65.051, -148.029
40.000, 65.010, -148.083
40.582, 64.944, -148.108
41.172, 64.868, -147.953
41.771, 64.803, -147.686
42.379, 64.738, -147.408
42.995, 64.657, -146.990
43.620, 64.584, -146.297
44.255, 64.539, -145.407
44.898, 64.520, -144.376
45.552, 64.535, -143.170
46.214, 64.596, -141.882
46.886, 64.694, -140.589
47.568, 64.832, -139.211
48.260, 65.040, -137.888
48.962, 65.295, -136.955
49.674, 65.543, -136.369
50.397, 65.783, -135.848
51.130, 66.046, -135.391
51.874, 66.333, -135.159
52.628, 66.630, -135.161
53.394, 66.949, -135.367
54.170, 67.300, -136.003
54.958, 67.634, -137.338
55.758, 67.881, -139.100
56.569, 68.062, -140.828
57.391, 68.217, -142.601
58.226, 68.316, -144.486
59.073, 68.358, -146.208
59.932, 68.378, -147.760
60.804, 68.368, -149.208
61.688, 68.336, -150.412
62.586, 68.309, -151.429
63.496, 68.285, -152.418
64.420, 68.248, -153.359
65.357, 68.204, -154.167
66.307, 68.165, -154.895
67.272, 68.122, -155.573
68.250, 68.084, -156.145
69.243, 68.052, -156.740
70.250, 68.007, -157.268
71.272, 67.970, -157.656
72.309, 67.946, -158.016
73.360, 67.929, -158.384
74.427, 67.909, -158.749
75.510, 67.895, -159.078
76.608, 67.874, -159.477
77.723, 67.840, -159.706
78.853, 67.833, -159.896
80.000, 67.821, -160.181
81.164, 67.814, -160.400
82.344, 67.808, -160.729
83.542, 67.796, -160.966
84.757, 67.801, -161.275
85.990, 67.793, -161.615
87.241, 67.780, -161.895
88.510, 67.780, -162.092
89.797, 67.774, -162.478
91.103, 67.733, -162.689
92.428, 67.716, -162.769
93.773, 67.708, -162.922
95.137, 67.701, -163.092
96.520, 67.706, -163.223
97.924, 67.716, -163.384
99.349, 67.746, -163.588
100.794, 67.724, -163.958
102.260, 67.702, -163.924
103.747, 67.702, -164.022
105.256, 67.689, -164.172
106.787, 67.676, -164.307
108.340, 67.654, -164.406
109.916, 67.646, -164.368
111.515, 67.667, -164.506
113.137, 67.641, -164.565
114.783, 67.668, -164.446
116.452, 67.696, -164.497
118.146, 67.728, -164.567
119.865, 67.740, -164.705
121.608, 67.760, -164.718
123.377, 67.796, -164.858
125.171, 67.820, -165.104
126.992, 67.845, -165.319
128.839, 67.856, -165.505
130.713, 67.871, -165.682
132.615, 67.870, -165.829
134.543, 67.875, -165.963
136.500, 67.880, -166.106
138.486, 67.886, -166.236
140.500, 67.903, -166.372
142.544, 67.919, -166.553
144.617, 67.931, -166.687
146.721, 67.937, -166.763
148.855, 67.944, -166.790
151.020, 67.953, -166.925
153.217, 67.961, -167.068
155.445, 67.977, -167.209
157.706, 67.998, -167.333
160.000, 68.015, -167.401
162.327, 68.032, -167.518
164.688, 68.047, -167.546
167.084, 68.071, -167.619
169.514, 68.076, -167.690
171.980, 68.097, -167.758
174.481, 68.141, -167.898
177.019, 68.143, -168.151
179.594, 68.182, -168.216
182.206, 68.199, -168.351
184.856, 68.227, -168.426
187.545, 68.251, -168.585
190.273, 68.265, -168.751
193.041, 68.292, -168.873
195.849, 68.316, -168.961
198.697, 68.349, -169.079
201.587, 68.380, -169.271
204.520, 68.399, -169.437
207.494, 68.426, -169.548
210.512, 68.457, -169.777
213.574, 68.489, -170.021
216.681, 68.521, -170.275
219.833, 68.543, -170.567
223.030, 68.567, -170.836
226.274, 68.599, -171.075
229.565, 68.624, -171.277
232.905, 68.650, -171.582
236.292, 68.672, -171.928
239.729, 68.696, -172.229
243.216, 68.706, -172.593
246.754, 68.730, -172.891
250.343, 68.755, -173.241
253.984, 68.771, -173.611
257.678, 68.769, -174.009
261.426, 68.757, -174.371
265.229, 68.757, -174.744
269.087, 68.762, -175.050
273.001, 68.757, -175.402
276.972, 68.742, -175.751
281.000, 68.732, -176.047
285.088, 68.736, -176.251
289.234, 68.734, -176.419
293.441, 68.740, -176.688
297.710, 68.744, -176.920
302.040, 68.752, -177.104
306.433, 68.777, -177.392
310.890, 68.791, -177.666
315.412, 68.813, -177.940
320.000, 68.853, -178.254
324.655, 68.884, -178.597
329.377, 68.949, -178.940
334.168, 69.007, -179.646
339.028, 69.120, 179.231
343.959, 69.238, 177.996
348.962, 69.244, 176.278
354.038, 69.202, 174.317
359.188, 69.133, 172.289
364.412, 68.939, 170.006
369.713, 68.625, 168.128
375.090, 68.247, 166.952
380.546, 67.864, 166.331
386.081, 67.486, 166.179
391.697, 67.108, 166.393
397.395, 66.743, 166.932
403.175, 66.386, 168.021
409.039, 66.083, 169.475
414.989, 65.825, 171.164
421.025, 65.624, 173.035
427.149, 65.478, 175.009
433.362, 65.367, 176.990
439.665, 65.301, 179.007
446.060, 65.278, -178.878
452.548, 65.316, -176.834
459.131, 65.397, -174.952
465.809, 65.537, -173.281
472.584, 65.688, -171.975
479.458, 65.836, -170.993
486.432, 66.002, -170.287
493.507, 66.145, -169.494
500.686, 66.299, -168.792
507.968, 66.455, -168.521
515.357, 66.575, -168.054
522.853, 66.711, -167.808
530.458, 66.817, -167.485
538.174, 66.945, -167.055
546.002, 67.080, -166.917
553.943, 67.198, -166.752
562.001, 67.342, -166.652
570.175, 67.477, -166.676
578.469, 67.610, -166.818
586.883, 67.716, -167.107
595.419, 67.814, -167.197
604.080, 67.923, -167.501
612.866, 68.000, -167.865
621.780, 68.081, -167.985
630.824, 68.178, -168.314
640.000, 68.239, -168.694
649.309, 68.321, -168.794
658.753, 68.413, -169.173
668.335, 68.488, -169.540
678.056, 68.570, -169.843
687.919, 68.665, -170.283
697.925, 68.748, -170.890
708.076, 68.816, -171.390
718.376, 68.870, -172.060
728.825, 68.925, -172.621
739.426, 69.016, -173.117
750.181, 69.104, -174.020
761.093, 69.151, -174.811
772.163, 69.243, -175.662
783.394, 69.366, -177.042
794.789, 69.409, -178.969
806.349, 69.408, 179.092
818.078, 69.327, 176.516
829.977, 69.103, 173.855
842.050, 68.672, 171.284
854.297, 68.034, 170.423
866.724, 67.409, 171.349
879.330, 66.900, 174.039
892.120, 66.676, 177.464
905.097, 66.688, -179.475
918.262, 66.809, -177.238
931.618, 67.011, -175.654
945.169, 67.207, -174.870
958.917, 67.311, -174.386
972.864, 67.461, -173.577
987.015, 67.656, -173.501
1001.371, 67.767, -173.451
1015.937, 67.882, -173.450
1030.714, 68.013, -173.403
1045.706, 68.180, -173.606
1060.916, 68.299, -174.318
1076.347, 68.377, -175.092
1092.003, 68.451, -175.175
1107.887, 68.558, -175.955
1124.001, 68.680, -176.506
1140.350, 68.791, -177.814
1156.937, 68.867, -178.862
1173.765, 68.892, 179.560
1190.838, 68.912, 177.943
1208.159, 68.876, 176.639
1225.732, 68.879, 174.751
1243.561, 68.776, 172.613
1261.649, 68.649, 169.996
1280.000, 68.309, 166.987
1298.618, 67.699, 164.594
1317.507, 66.913, 164.737
1336.670, 66.357, 167.008
1356.113, 66.046, 169.291
1375.838, 65.872, 171.186
1395.850, 65.716, 172.251
1416.153, 65.422, 173.389
1436.751, 65.150, 175.822
1457.649, 65.063, 178.759
1478.851, 65.143, -178.889
1500.362, 65.283, -177.591
1522.185, 65.311, -177.075
1544.326, 65.245, -175.920
1566.789, 65.251, -174.435
1589.578, 65.339, -173.243
1612.699, 65.398, -172.442
1636.156, 65.453, -171.813
1659.955, 65.498, -171.239
1684.099, 65.489, -170.885
1708.595, 65.514, -170.198
1733.447, 65.470, -170.273
1758.661, 65.324, -169.720
1784.241, 65.225, -168.314
1810.193, 65.239, -167.389
1836.523, 65.085, -166.981
1863.236, 64.879, -165.567
1890.338, 64.648, -163.170
1917.833, 64.515, -159.437
1945.729, 64.714, -155.358
1974.030, 64.993, -152.797
2002.743, 65.268, -150.043
2031.873, 65.705, -147.875
2061.428, 66.102, -146.631
2091.412, 66.453, -145.828
2121.832, 66.763, -144.909
2152.695, 67.153, -143.687
2184.007, 67.560, -143.470
2215.774, 67.888, -143.600
2248.003, 68.198, -143.312
2280.701, 68.592, -143.035
2313.874, 68.992, -143.628
2347.530, 69.302, -144.354
2381.676, 69.637, -145.074
2416.318, 69.942, -146.369
2451.464, 70.150, -147.664
2487.122, 70.339, -148.397
2523.298, 70.621, -149.502
2560.000, 70.781, -151.104
2597.236, 70.938, -152.222
2635.014, 71.083, -153.679
2673.341, 71.142, -155.115
2712.226, 71.165, -155.959
2751.676, 71.213, -156.422
2791.700, 71.338, -156.673
2832.306, 71.492, -157.243
2873.503, 71.657, -157.780
2915.299, 71.856, -158.679
2957.703, 72.006, -159.845
3000.724, 72.169, -160.884
3044.370, 72.310, -162.207
3088.652, 72.448, -163.241
3133.577, 72.640, -164.685
3179.156, 72.772, -166.474
3225.398, 72.885, -168.357
3272.312, 72.954, -170.313
3319.909, 72.996, -172.322
3368.198, 73.002, -174.260
3417.190, 72.971, -176.303
3466.894, 72.931, -177.861
3517.321, 72.906, -179.851
3568.482, 72.817, 178.348
3620.387, 72.745, 176.461
3673.046, 72.588, 174.752
3726.472, 72.476, 173.203
3780.675, 72.307, 171.573
3835.666, 72.127, 170.007
3891.457, 71.870, 168.677
3948.060, 71.649, 167.915
4005.486, 71.431, 167.188
4063.747, 71.239, 166.695
4122.855, 71.054, 166.311
4182.824, 70.941, 165.904
4243.664, 70.788, 165.069
4305.390, 70.592, 164.394
4368.013, 70.364, 164.182
4431.547, 70.209, 164.190
4496.005, 70.074, 164.227
4561.401, 69.987, 164.134
4627.749, 69.930, 163.804
4695.061, 69.830, 163.087
4763.352, 69.701, 162.519
4832.637, 69.575, 162.091
4902.929, 69.485, 161.461
4974.244, 69.374, 160.421
5046.596, 69.175, 159.099
5120.000, 68.882, 157.988
5194.472, 68.510, 157.420
5270.027, 68.116, 157.578
5346.682, 67.772, 158.451
5424.451, 67.510, 159.513
5503.352, 67.254, 160.414
5583.399, 66.971, 161.718
5664.612, 66.744, 163.780
5747.006, 66.649, 166.037
5830.598, 66.640, 168.102
5915.406, 66.710, 170.089
6001.447, 66.874, 171.710
6088.740, 67.095, 172.699
6177.303, 67.339, 173.113
6267.154, 67.605, 172.968
6358.312, 67.872, 172.000
6450.796, 68.068, 170.182
6544.625, 68.151, 167.863
6639.818, 68.115, 165.298
6736.397, 67.943, 162.719
6834.380, 67.639, 160.618
6933.789, 67.275, 159.298
7034.643, 66.925, 158.599
7136.964, 66.602, 158.164
7240.773, 66.280, 157.843
7346.093, 65.941, 157.806
7452.944, 65.622, 158.160
7561.350, 65.341, 158.634
7671.332, 65.054, 159.196
7782.915, 64.770, 160.220
7896.120, 64.543, 161.740
8010.971, 64.432, 163.772
8127.493, 64.535, 165.839
8245.711, 64.867, 166.933
8365.647, 65.342, 166.009
8487.328, 65.757, 162.579
8610.779, 65.949, 157.036
8736.026, 65.830, 150.035
8863.095, 65.391, 141.061
8992.011, 64.006, 131.969
9122.803, 62.089, 127.545
9255.497, 59.974, 126.712
9390.121, 57.758, 129.514
9526.704, 55.527, 135.908
9665.273, 53.327, 146.313
9805.857, 51.197, 162.551
9948.487, 49.910, -172.242
10093.191, 51.036, -145.161
10240.000, 53.638, -126.752
10388.944, 56.658, -116.986
10540.055, 59.725, -116.217
10693.363, 62.016, -125.174
10848.902, 62.851, -138.704
11006.703, 62.460, -148.509
11166.799, 61.689, -152.288
11329.224, 61.040, -152.122
11494.012, 60.644, -150.017
11661.195, 60.479, -146.816
11830.812, 60.624, -143.375
12002.895, 61.065, -141.150
12177.480, 61.562, -141.903
12354.606, 61.598, -145.300
12534.309, 60.865, -147.129
12716.624, 59.736, -141.964
12901.592, 59.554, -128.564
13089.250, 61.312, -117.102
13279.637, 63.476, -115.808
13472.794, 65.064, -120.684
13668.760, 66.205, -127.106
13867.577, 67.205, -134.868
14069.285, 67.914, -145.537
14273.928, 68.052, -158.387
14481.547, 67.459, -171.583
14692.186, 66.178, 177.140
14905.889, 64.306, 168.879
15122.700, 61.794, 166.404
15342.664, 59.176, 174.482
15565.829, 58.236, -170.159
15792.239, 59.188, -162.475
16021.942, 59.689, -165.997
16254.986, 58.878, -171.677
16491.422, 56.889, -170.403
16731.295, 54.991, -154.563
16974.656, 56.294, -132.464
17221.559, 59.390, -127.118
17472.053, 61.164, -138.432
17726.189, 60.805, -152.405
17984.021, 59.085, -155.113
18245.605, 58.126, -146.337
18510.994, 59.035, -137.317
18780.242, 60.870, -136.172
19053.408, 62.494, -144.396
19330.547, 63.135, -158.711
19611.715, 62.669, -172.723
19896.975, 61.760, 177.819
