* Measurement data measured by REW V5.19
* Source: ASIO MOTU M Series, In 1
* Format: 1M Log Swept Sine, 1 sweep at -3.0 dBFS  With no timing reference
* Dated: 10 Dec, 2021 5:14:52 PM
* REW Settings:
*  C-weighting compensation: Off
*  Target level: 75.0 dB
* Note: ; 
* Measurement: Dec 10 17:14:52
* Smoothing: 1/48 octave
* Frequency Step: 1/48 octave
* Start Frequency: 10.1 Hz
*
* Freq(Hz), SPL(dB), Phase(degrees)
10.145, 62.727, -88.860
10.293, 62.756, -89.617
10.443, 62.787, -90.623
10.595, 62.837, -91.923
10.749, 62.891, -93.268
10.905, 62.938, -94.276
11.064, 62.983, -95.167
11.225, 63.032, -96.216
11.388, 63.081, -97.340
11.554, 63.125, -98.432
11.722, 63.164, -99.505
11.892, 63.198, -100.549
12.065, 63.226, -101.564
12.241, 63.251, -102.554
12.419, 63.274, -103.507
12.599, 63.299, -104.380
12.782, 63.326, -105.201
12.968, 63.359, -106.002
13.157, 63.399, -106.784
13.348, 63.446, -107.550
13.543, 63.499, -108.336
13.740, 63.556, -109.150
13.939, 63.615, -110.000
14.142, 63.673, -110.885
14.348, 63.729, -111.801
14.557, 63.779, -112.739
14.768, 63.824, -113.693
14.983, 63.862, -114.642
15.201, 63.893, -115.580
15.422, 63.917, -116.498
15.646, 63.936, -117.382
15.874, 63.951, -118.228
16.105, 63.962, -119.031
16.339, 63.971, -119.790
16.577, 63.980, -120.513
16.818, 63.989, -121.204
17.063, 63.998, -121.875
17.311, 64.005, -122.529
17.563, 64.008, -123.164
17.818, 64.008, -123.770
18.077, 64.003, -124.328
18.340, 63.997, -124.826
18.607, 63.993, -125.266
18.877, 63.993, -125.659
19.152, 64.001, -126.036
19.431, 64.013, -126.434
19.713, 64.024, -126.868
20.000, 64.028, -127.327
20.291, 64.019, -127.772
20.586, 63.999, -128.154
20.885, 63.970, -128.426
21.189, 63.942, -128.571
21.497, 63.919, -128.601
21.810, 63.905, -128.538
22.127, 63.897, -128.374
22.449, 63.900, -128.068
22.776, 63.924, -127.572
23.107, 63.991, -126.895
23.443, 64.126, -126.165
23.784, 64.337, -125.617
24.130, 64.609, -125.516
24.481, 64.904, -126.029
24.837, 65.176, -127.160
25.198, 65.392, -128.764
25.565, 65.531, -130.616
25.937, 65.596, -132.497
26.314, 65.599, -134.234
26.697, 65.558, -135.725
27.085, 65.496, -136.942
27.479, 65.431, -137.922
27.879, 65.371, -138.747
28.284, 65.318, -139.500
28.696, 65.262, -140.218
29.113, 65.195, -140.874
29.537, 65.118, -141.399
29.966, 65.042, -141.758
30.402, 64.978, -141.989
30.844, 64.926, -142.173
31.293, 64.880, -142.353
31.748, 64.831, -142.513
32.210, 64.780, -142.623
32.678, 64.728, -142.692
33.154, 64.670, -142.731
33.636, 64.601, -142.698
34.125, 64.522, -142.514
34.621, 64.446, -142.153
35.125, 64.380, -141.664
35.636, 64.322, -141.075
36.154, 64.267, -140.331
36.680, 64.228, -139.368
37.214, 64.222, -138.223
37.755, 64.255, -136.984
38.304, 64.322, -135.654
38.861, 64.437, -134.180
39.427, 64.630, -132.645
40.000, 64.920, -131.335
40.582, 65.283, -130.592
41.172, 65.668, -130.604
41.771, 66.018, -131.341
42.379, 66.285, -132.570
42.995, 66.448, -133.874
43.620, 66.537, -134.825
44.255, 66.621, -135.286
44.898, 66.753, -135.515
45.552, 66.931, -135.879
46.214, 67.120, -136.506
46.886, 67.300, -137.332
47.568, 67.470, -138.317
48.260, 67.622, -139.461
48.962, 67.745, -140.719
49.674, 67.834, -141.976
50.397, 67.904, -143.107
51.130, 67.982, -144.171
51.874, 68.062, -145.385
52.628, 68.107, -146.718
53.394, 68.122, -147.936
54.170, 68.134, -149.108
54.958, 68.124, -150.343
55.758, 68.080, -151.429
56.569, 68.038, -152.327
57.391, 67.998, -153.212
58.226, 67.943, -154.012
59.073, 67.890, -154.698
59.932, 67.831, -155.335
60.804, 67.767, -155.817
61.688, 67.718, -156.228
62.586, 67.664, -156.658
63.496, 67.604, -156.951
64.420, 67.560, -157.186
65.357, 67.516, -157.449
66.307, 67.469, -157.608
67.272, 67.433, -157.675
68.250, 67.408, -157.676
69.243, 67.400, -157.595
70.250, 67.417, -157.540
71.272, 67.437, -157.585
72.309, 67.454, -157.617
73.360, 67.480, -157.631
74.427, 67.522, -157.667
75.510, 67.580, -157.878
76.608, 67.622, -158.270
77.723, 67.648, -158.658
78.853, 67.672, -159.022
80.000, 67.693, -159.452
81.164, 67.694, -159.829
82.344, 67.702, -160.139
83.542, 67.701, -160.467
84.757, 67.703, -160.720
85.990, 67.706, -160.992
87.241, 67.709, -161.226
88.510, 67.723, -161.437
89.797, 67.743, -161.788
91.103, 67.730, -162.114
92.428, 67.723, -162.268
93.773, 67.724, -162.418
95.137, 67.729, -162.626
96.520, 67.723, -162.856
97.924, 67.730, -163.097
99.349, 67.706, -163.454
100.794, 67.706, -163.370
102.260, 67.750, -163.617
103.747, 67.762, -163.852
105.256, 67.769, -164.008
106.787, 67.777, -164.176
108.340, 67.770, -164.401
109.916, 67.764, -164.598
111.515, 67.762, -164.842
113.137, 67.762, -164.989
114.783, 67.770, -165.116
116.452, 67.772, -165.155
118.146, 67.779, -165.271
119.865, 67.774, -165.451
121.608, 67.769, -165.602
123.377, 67.783, -165.768
125.171, 67.786, -165.916
126.992, 67.796, -165.919
128.839, 67.803, -166.006
130.713, 67.800, -166.106
132.615, 67.804, -166.169
134.543, 67.821, -166.249
136.500, 67.846, -166.334
138.486, 67.868, -166.419
140.500, 67.878, -166.549
142.544, 67.885, -166.659
144.617, 67.906, -166.833
146.721, 67.924, -167.011
148.855, 67.939, -167.099
151.020, 67.954, -167.185
153.217, 67.956, -167.318
155.445, 67.970, -167.413
157.706, 67.990, -167.581
160.000, 68.008, -167.668
162.327, 68.024, -167.773
164.688, 68.043, -167.909
167.084, 68.061, -167.992
169.514, 68.084, -168.046
171.980, 68.107, -168.151
174.481, 68.129, -168.327
177.019, 68.158, -168.491
179.594, 68.183, -168.597
182.206, 68.191, -168.706
184.856, 68.204, -168.842
187.545, 68.231, -169.079
190.273, 68.261, -169.256
193.041, 68.285, -169.424
195.849, 68.299, -169.568
198.697, 68.320, -169.721
201.587, 68.356, -169.841
204.520, 68.363, -170.080
207.494, 68.399, -170.189
210.512, 68.448, -170.502
213.574, 68.467, -170.865
216.681, 68.480, -171.133
219.833, 68.519, -171.398
223.030, 68.545, -171.651
226.274, 68.549, -171.902
229.565, 68.559, -172.254
232.905, 68.575, -172.621
236.292, 68.588, -172.932
239.729, 68.596, -173.304
243.216, 68.601, -173.671
246.754, 68.609, -173.997
250.343, 68.598, -174.412
253.984, 68.573, -174.776
257.678, 68.551, -175.096
261.426, 68.521, -175.354
265.229, 68.498, -175.558
269.087, 68.477, -175.769
273.001, 68.446, -175.964
276.972, 68.409, -176.059
281.000, 68.386, -176.070
285.088, 68.377, -175.982
289.234, 68.374, -175.916
293.441, 68.373, -175.824
297.710, 68.396, -175.732
302.040, 68.449, -175.710
306.433, 68.504, -175.749
310.890, 68.554, -175.792
315.412, 68.616, -175.924
320.000, 68.702, -176.147
324.655, 68.801, -176.417
329.377, 68.920, -176.867
334.168, 69.046, -177.573
339.028, 69.185, -178.609
343.959, 69.308, 179.931
348.962, 69.379, 177.984
354.038, 69.373, 175.917
359.188, 69.328, 173.516
364.412, 69.159, 170.904
369.713, 68.862, 168.697
375.090, 68.488, 167.130
380.546, 68.090, 166.170
386.081, 67.683, 165.728
391.697, 67.279, 165.754
397.395, 66.872, 166.190
403.175, 66.480, 167.055
409.039, 66.116, 168.473
414.989, 65.821, 170.239
421.025, 65.592, 172.192
427.149, 65.417, 174.293
433.362, 65.280, 176.376
439.665, 65.189, 178.651
446.060, 65.176, -178.959
452.548, 65.220, -176.820
459.131, 65.302, -174.787
465.809, 65.459, -172.908
472.584, 65.638, -171.411
479.458, 65.816, -170.359
486.432, 66.000, -169.492
493.507, 66.160, -168.680
500.686, 66.340, -168.060
507.968, 66.524, -167.672
515.357, 66.696, -167.534
522.853, 66.832, -167.415
530.458, 66.955, -167.202
538.174, 67.109, -167.076
546.002, 67.250, -167.234
553.943, 67.366, -167.277
562.001, 67.495, -167.444
570.175, 67.609, -167.698
578.469, 67.720, -168.034
586.883, 67.802, -168.441
595.419, 67.879, -168.691
604.080, 67.955, -169.140
612.866, 68.003, -169.509
621.780, 68.052, -169.712
630.824, 68.126, -170.084
640.000, 68.154, -170.440
649.309, 68.211, -170.534
658.753, 68.274, -170.897
668.335, 68.324, -171.170
678.056, 68.385, -171.449
687.919, 68.461, -171.727
697.925, 68.537, -172.334
708.076, 68.579, -172.813
718.376, 68.630, -173.371
728.825, 68.671, -173.906
739.426, 68.742, -174.453
750.181, 68.803, -175.357
761.093, 68.828, -176.217
772.163, 68.882, -177.084
783.394, 68.948, -178.402
794.789, 68.931, 179.874
806.349, 68.864, 178.144
818.078, 68.722, 176.103
829.977, 68.436, 174.042
842.050, 67.986, 172.466
854.297, 67.407, 172.543
866.724, 66.896, 174.161
879.330, 66.527, 177.081
892.120, 66.427, -179.544
905.097, 66.534, -176.831
918.262, 66.683, -174.880
931.618, 66.935, -173.647
945.169, 67.127, -173.186
958.917, 67.260, -172.886
972.864, 67.427, -172.282
987.015, 67.640, -172.412
1001.371, 67.752, -172.714
1015.937, 67.864, -173.019
1030.714, 67.967, -173.204
1045.706, 68.136, -173.657
1060.916, 68.225, -174.667
1076.347, 68.257, -175.542
1092.003, 68.295, -175.841
1107.887, 68.354, -176.734
1124.001, 68.428, -177.330
1140.350, 68.488, -178.608
1156.937, 68.526, -179.700
1173.765, 68.512, 178.808
1190.838, 68.493, 177.123
1208.159, 68.391, 175.689
1225.732, 68.285, 173.732
1243.561, 68.074, 171.947
1261.649, 67.840, 169.848
1280.000, 67.400, 167.693
1298.618, 66.760, 166.500
1317.507, 66.020, 167.622
1336.670, 65.519, 170.581
1356.113, 65.277, 173.490
1375.838, 65.195, 175.725
1395.850, 65.094, 177.022
1416.153, 64.859, 178.412
1436.751, 64.675, -179.009
1457.649, 64.645, -176.195
1478.851, 64.747, -173.888
1500.362, 64.913, -172.624
1522.185, 64.947, -172.100
1544.326, 64.902, -170.928
1566.789, 64.922, -169.401
1589.578, 65.027, -168.263
1612.699, 65.074, -167.326
1636.156, 65.127, -166.635
1659.955, 65.121, -165.955
1684.099, 65.087, -164.883
1708.595, 65.162, -163.448
1733.447, 65.220, -163.020
1758.661, 65.187, -162.319
1784.241, 65.156, -161.129
1810.193, 65.180, -160.214
1836.523, 65.075, -159.501
1863.236, 64.929, -157.845
1890.338, 64.795, -155.149
1917.833, 64.825, -151.499
1945.729, 65.140, -147.973
1974.030, 65.498, -146.222
2002.743, 65.763, -144.300
2031.873, 66.154, -142.480
2061.428, 66.544, -141.545
2091.412, 66.861, -140.771
2121.832, 67.171, -139.998
2152.695, 67.543, -138.932
2184.007, 67.963, -138.805
2215.774, 68.252, -139.020
2248.003, 68.531, -138.613
2280.701, 68.918, -138.205
2313.874, 69.310, -138.660
2347.530, 69.614, -139.121
2381.676, 69.971, -139.479
2416.318, 70.312, -140.524
2451.464, 70.575, -141.510
2487.122, 70.858, -142.227
2523.298, 71.184, -143.477
2560.000, 71.401, -145.074
2597.236, 71.613, -146.278
2635.014, 71.819, -147.849
2673.341, 71.954, -149.465
2712.226, 72.047, -150.706
2751.676, 72.159, -151.660
2791.700, 72.309, -152.682
2832.306, 72.439, -153.873
2873.503, 72.570, -154.907
2915.299, 72.717, -156.061
2957.703, 72.844, -157.332
3000.724, 73.001, -158.691
3044.370, 73.091, -160.390
3088.652, 73.149, -161.695
3133.577, 73.238, -162.976
3179.156, 73.307, -164.215
3225.398, 73.445, -165.651
3272.312, 73.526, -167.462
3319.909, 73.566, -169.331
3368.198, 73.556, -170.935
3417.190, 73.577, -172.501
3466.894, 73.592, -174.010
3517.321, 73.609, -175.809
3568.482, 73.576, -177.588
3620.387, 73.555, -179.345
3673.046, 73.483, 178.743
3726.472, 73.400, 176.964
3780.675, 73.264, 175.206
3835.666, 73.127, 173.759
3891.457, 72.977, 172.215
3948.060, 72.811, 171.008
4005.486, 72.638, 169.826
4063.747, 72.477, 168.993
4122.855, 72.338, 168.057
4182.824, 72.235, 167.193
4243.664, 72.107, 165.900
4305.390, 71.956, 164.712
4368.013, 71.745, 163.563
4431.547, 71.553, 162.707
4496.005, 71.355, 162.011
4561.401, 71.197, 161.167
4627.749, 71.011, 160.180
4695.061, 70.764, 159.156
4763.352, 70.500, 158.570
4832.637, 70.245, 158.211
4902.929, 70.019, 157.856
4974.244, 69.783, 157.440
5046.596, 69.508, 156.946
5120.000, 69.183, 156.714
5194.472, 68.816, 157.006
5270.027, 68.458, 157.928
5346.682, 68.174, 159.469
5424.451, 67.993, 161.110
5503.352, 67.856, 162.473
5583.399, 67.713, 163.973
5664.612, 67.613, 165.926
5747.006, 67.628, 168.059
5830.598, 67.756, 169.977
5915.406, 67.984, 171.502
6001.447, 68.297, 172.332
6088.740, 68.657, 172.277
6177.303, 69.025, 171.223
6267.154, 69.349, 169.035
6358.312, 69.538, 165.788
6450.796, 69.532, 162.020
6544.625, 69.334, 158.314
6639.818, 68.967, 155.083
6736.397, 68.466, 152.659
6834.380, 67.886, 151.366
6933.789, 67.321, 151.270
7034.643, 66.855, 151.997
7136.964, 66.509, 152.978
7240.773, 66.235, 153.715
7346.093, 65.961, 154.362
7452.944, 65.707, 155.191
7561.350, 65.478, 156.049
7671.332, 65.249, 157.113
7782.915, 65.063, 158.734
7896.120, 65.017, 160.796
8010.971, 65.176, 162.722
8127.493, 65.519, 163.812
8245.711, 66.054, 163.604
8365.647, 66.750, 161.013
8487.328, 67.404, 154.831
8610.779, 67.702, 144.816
8736.026, 67.348, 132.226
8863.095, 66.233, 118.361
8992.011, 63.956, 106.954
9122.803, 60.987, 102.007
9255.497, 57.638, 103.853
9390.121, 54.266, 114.254
9526.704, 51.652, 132.028
9665.273, 50.424, 151.768
9805.857, 49.980, 168.081
9948.487, 49.485, -175.631
10093.191, 49.549, -154.745
10240.000, 51.281, -133.725
10388.944, 54.120, -120.982
10540.055, 56.773, -119.277
10693.363, 58.378, -124.355
10848.902, 59.002, -129.399
11006.703, 59.110, -130.886
11166.799, 59.311, -128.632
11329.224, 59.946, -125.270
11494.012, 60.905, -123.580
11661.195, 61.891, -124.145
11830.812, 62.772, -126.335
12002.895, 63.634, -129.660
12177.480, 64.436, -135.717
12354.606, 64.838, -145.223
12534.309, 64.419, -157.176
12716.624, 62.815, -168.266
12901.592, 59.574, -170.155
13089.250, 55.969, -141.548
13279.637, 59.042, -108.155
13472.794, 62.822, -104.415
13668.760, 65.371, -111.887
13867.577, 67.143, -123.071
14069.285, 68.283, -136.744
14273.928, 68.838, -152.333
14481.547, 68.740, -169.686
14692.186, 67.891, 171.585
14905.889, 66.126, 151.213
15122.700, 62.965, 128.145
15342.664, 57.379, 93.825
15565.829, 50.203, -1.917
15792.239, 54.825, -81.363
16021.942, 58.641, -102.236
16254.986, 60.719, -114.206
16491.422, 61.771, -124.633
16731.295, 62.186, -132.564
16974.656, 62.568, -138.059
17221.559, 63.110, -144.931
17472.053, 63.353, -155.871
17726.189, 62.571, -168.495
17984.021, 60.793, -175.589
18245.605, 58.936, -174.287
18510.994, 58.041, -168.466
18780.242, 58.269, -165.079
19053.408, 58.716, -168.413
19330.547, 58.608, -174.919
19611.715, 58.356, 178.255
19896.975, 58.087, 168.991
