* Measurement data measured by REW V5.19
* Source: ASIO MOTU M Series, In 1
* Format: 1M Log Swept Sine, 1 sweep at -3.0 dBFS  With no timing reference
* Dated: 10 Dec, 2021 5:12:17 PM
* REW Settings:
*  C-weighting compensation: Off
*  Target level: 75.0 dB
* Note: ; 
* Measurement: Dec 10 17:12:17
* Smoothing: 1/48 octave
* Frequency Step: 1/48 octave
* Start Frequency: 10.1 Hz
*
* Freq(Hz), SPL(dB), Phase(degrees)
10.145, 63.403, -93.702
10.293, 63.439, -94.385
10.443, 63.476, -95.305
10.595, 63.536, -96.507
10.749, 63.600, -97.767
10.905, 63.652, -98.739
11.064, 63.700, -99.619
11.225, 63.752, -100.637
11.388, 63.804, -101.720
11.554, 63.850, -102.774
11.722, 63.892, -103.812
11.892, 63.929, -104.830
12.065, 63.961, -105.829
12.241, 63.989, -106.820
12.419, 64.014, -107.790
12.599, 64.036, -108.698
12.782, 64.056, -109.562
12.968, 64.077, -110.401
13.157, 64.099, -111.204
13.348, 64.123, -111.964
13.543, 64.151, -112.707
13.740, 64.182, -113.437
13.939, 64.216, -114.169
14.142, 64.252, -114.905
14.348, 64.289, -115.656
14.557, 64.325, -116.426
14.768, 64.359, -117.214
14.983, 64.388, -118.013
15.201, 64.412, -118.815
15.422, 64.430, -119.616
15.646, 64.441, -120.398
15.874, 64.447, -121.153
16.105, 64.447, -121.872
16.339, 64.445, -122.542
16.577, 64.440, -123.159
16.818, 64.437, -123.721
17.063, 64.438, -124.233
17.311, 64.446, -124.714
17.563, 64.462, -125.187
17.818, 64.485, -125.677
18.077, 64.513, -126.214
18.340, 64.539, -126.803
18.607, 64.559, -127.427
18.877, 64.569, -128.054
19.152, 64.569, -128.635
19.431, 64.565, -129.129
19.713, 64.567, -129.535
20.000, 64.581, -129.895
20.291, 64.608, -130.273
20.586, 64.641, -130.729
20.885, 64.665, -131.278
21.189, 64.667, -131.859
21.497, 64.640, -132.336
21.810, 64.597, -132.572
22.127, 64.562, -132.506
22.449, 64.561, -132.204
22.776, 64.607, -131.838
23.107, 64.691, -131.585
23.443, 64.789, -131.511
23.784, 64.879, -131.534
24.130, 64.966, -131.501
24.481, 65.073, -131.341
24.837, 65.232, -131.185
25.198, 65.447, -131.325
25.565, 65.685, -132.026
25.937, 65.889, -133.336
26.314, 66.017, -135.048
26.697, 66.052, -136.817
27.085, 66.019, -138.344
27.479, 65.957, -139.531
27.879, 65.898, -140.481
28.284, 65.847, -141.356
28.696, 65.789, -142.216
29.113, 65.716, -142.999
29.537, 65.635, -143.618
29.966, 65.562, -144.080
30.402, 65.503, -144.467
30.844, 65.452, -144.848
31.293, 65.398, -145.207
31.748, 65.342, -145.501
32.210, 65.285, -145.718
32.678, 65.230, -145.867
33.154, 65.174, -145.943
33.636, 65.120, -145.934
34.125, 65.070, -145.868
34.621, 65.020, -145.771
35.125, 64.962, -145.599
35.636, 64.902, -145.289
36.154, 64.853, -144.873
36.680, 64.808, -144.433
37.214, 64.747, -143.890
37.755, 64.683, -143.000
38.304, 64.666, -141.720
38.861, 64.731, -140.385
39.427, 64.845, -139.276
40.000, 64.975, -138.316
40.582, 65.134, -137.377
41.172, 65.332, -136.625
41.771, 65.535, -136.161
42.379, 65.724, -135.728
42.995, 65.946, -135.173
43.620, 66.233, -134.860
44.255, 66.532, -135.096
44.898, 66.792, -135.653
45.552, 67.036, -136.238
46.214, 67.299, -136.991
46.886, 67.557, -138.176
47.568, 67.762, -139.754
48.260, 67.889, -141.439
48.962, 67.953, -142.934
49.674, 67.992, -144.098
50.397, 68.046, -145.063
51.130, 68.113, -146.062
51.874, 68.169, -147.159
52.628, 68.203, -148.258
53.394, 68.223, -149.260
54.170, 68.250, -150.209
54.958, 68.281, -151.286
55.758, 68.282, -152.517
56.569, 68.235, -153.635
57.391, 68.178, -154.439
58.226, 68.148, -155.140
59.073, 68.116, -155.977
59.932, 68.047, -156.710
60.804, 67.984, -157.154
61.688, 67.950, -157.612
62.586, 67.902, -158.130
63.496, 67.849, -158.505
64.420, 67.809, -158.869
65.357, 67.758, -159.219
66.307, 67.712, -159.421
67.272, 67.682, -159.635
68.250, 67.645, -159.825
69.243, 67.617, -159.928
70.250, 67.594, -160.039
71.272, 67.565, -160.103
72.309, 67.542, -160.033
73.360, 67.547, -159.934
74.427, 67.558, -159.993
75.510, 67.557, -160.039
76.608, 67.573, -160.044
77.723, 67.607, -160.192
78.853, 67.627, -160.511
80.000, 67.628, -160.722
81.164, 67.648, -160.880
82.344, 67.665, -161.105
83.542, 67.675, -161.302
84.757, 67.682, -161.423
85.990, 67.697, -161.596
87.241, 67.700, -161.752
88.510, 67.715, -161.964
89.797, 67.715, -162.128
91.103, 67.751, -162.342
92.428, 67.759, -162.710
93.773, 67.760, -162.969
95.137, 67.753, -163.157
96.520, 67.748, -163.254
97.924, 67.738, -163.279
99.349, 67.752, -163.171
100.794, 67.771, -163.313
102.260, 67.767, -163.293
103.747, 67.801, -163.295
105.256, 67.834, -163.483
106.787, 67.868, -163.639
108.340, 67.918, -163.917
109.916, 67.947, -164.272
111.515, 67.964, -164.544
113.137, 67.966, -164.774
114.783, 67.972, -164.903
116.452, 67.974, -165.113
118.146, 67.979, -165.369
119.865, 67.971, -165.615
121.608, 67.977, -165.733
123.377, 67.994, -165.869
125.171, 67.997, -165.994
126.992, 68.002, -166.092
128.839, 68.000, -166.267
130.713, 68.003, -166.430
132.615, 68.013, -166.536
134.543, 68.027, -166.595
136.500, 68.043, -166.694
138.486, 68.052, -166.796
140.500, 68.066, -166.941
142.544, 68.074, -167.077
144.617, 68.085, -167.108
146.721, 68.102, -167.225
148.855, 68.107, -167.368
151.020, 68.118, -167.436
153.217, 68.138, -167.542
155.445, 68.159, -167.641
157.706, 68.177, -167.761
160.000, 68.194, -167.789
162.327, 68.215, -167.886
164.688, 68.229, -167.998
167.084, 68.247, -168.104
169.514, 68.269, -168.215
171.980, 68.290, -168.276
174.481, 68.316, -168.376
177.019, 68.341, -168.548
179.594, 68.367, -168.724
182.206, 68.393, -168.829
184.856, 68.417, -168.889
187.545, 68.441, -169.056
190.273, 68.449, -169.140
193.041, 68.485, -169.238
195.849, 68.515, -169.342
198.697, 68.541, -169.505
201.587, 68.574, -169.635
204.520, 68.609, -169.818
207.494, 68.643, -169.981
210.512, 68.680, -170.173
213.574, 68.714, -170.419
216.681, 68.752, -170.649
219.833, 68.786, -170.852
223.030, 68.819, -171.133
226.274, 68.846, -171.426
229.565, 68.878, -171.714
232.905, 68.911, -172.015
236.292, 68.940, -172.329
239.729, 68.967, -172.654
243.216, 68.996, -172.997
246.754, 69.025, -173.430
250.343, 69.044, -173.879
253.984, 69.060, -174.248
257.678, 69.076, -174.627
261.426, 69.086, -175.027
265.229, 69.096, -175.447
269.087, 69.107, -175.928
273.001, 69.110, -176.421
276.972, 69.097, -176.875
281.000, 69.089, -177.262
285.088, 69.082, -177.658
289.234, 69.071, -178.002
293.441, 69.058, -178.409
297.710, 69.035, -178.840
302.040, 69.027, -179.173
306.433, 69.018, -179.536
310.890, 68.999, -179.923
315.412, 68.979, 179.718
320.000, 68.960, 179.402
324.655, 68.929, 179.091
329.377, 68.910, 178.807
334.168, 68.893, 178.567
339.028, 68.892, 178.368
343.959, 68.908, 178.190
348.962, 68.945, 177.889
354.038, 69.011, 177.511
359.188, 69.102, 176.812
364.412, 69.194, 175.568
369.713, 69.238, 173.797
375.090, 69.204, 171.601
380.546, 69.042, 169.235
386.081, 68.750, 167.137
391.697, 68.354, 165.697
397.395, 67.891, 165.062
403.175, 67.427, 165.357
409.039, 67.010, 166.484
414.989, 66.672, 168.015
421.025, 66.412, 170.037
427.149, 66.256, 172.202
433.362, 66.183, 174.345
439.665, 66.163, 176.399
446.060, 66.219, 178.221
452.548, 66.327, 179.650
459.131, 66.447, -179.232
465.809, 66.593, -178.312
472.584, 66.728, -177.862
479.458, 66.823, -177.548
486.432, 66.906, -177.313
493.507, 66.975, -177.034
500.686, 67.047, -176.754
507.968, 67.135, -176.560
515.357, 67.211, -176.511
522.853, 67.260, -176.499
530.458, 67.312, -176.330
538.174, 67.408, -176.167
546.002, 67.493, -176.413
553.943, 67.545, -176.567
562.001, 67.614, -176.773
570.175, 67.667, -177.173
578.469, 67.697, -177.559
586.883, 67.708, -177.934
595.419, 67.711, -178.191
604.080, 67.718, -178.452
612.866, 67.694, -178.724
621.780, 67.698, -178.756
630.824, 67.715, -179.033
640.000, 67.679, -179.244
649.309, 67.678, -179.153
658.753, 67.685, -179.285
668.335, 67.699, -179.333
678.056, 67.721, -179.390
687.919, 67.761, -179.536
697.925, 67.817, 179.982
708.076, 67.822, 179.505
718.376, 67.838, 178.924
728.825, 67.818, 178.307
739.426, 67.791, 177.647
750.181, 67.719, 176.789
761.093, 67.599, 176.159
772.163, 67.476, 175.925
783.394, 67.403, 175.588
794.789, 67.263, 174.968
806.349, 67.094, 174.707
818.078, 66.889, 174.416
829.977, 66.589, 174.584
842.050, 66.271, 175.770
854.297, 66.040, 178.039
866.724, 66.043, -179.382
879.330, 66.131, -177.441
892.120, 66.319, -175.916
905.097, 66.540, -175.248
918.262, 66.674, -174.825
931.618, 66.827, -174.491
945.169, 66.982, -174.319
958.917, 67.104, -174.353
972.864, 67.250, -174.394
987.015, 67.394, -174.709
1001.371, 67.520, -174.996
1015.937, 67.635, -175.586
1030.714, 67.755, -175.989
1045.706, 67.938, -176.968
1060.916, 67.984, -178.435
1076.347, 68.055, -179.785
1092.003, 68.005, 179.025
1107.887, 68.002, 177.835
1124.001, 67.986, 176.660
1140.350, 67.978, 175.002
1156.937, 67.889, 173.548
1173.765, 67.796, 171.536
1190.838, 67.631, 169.332
1208.159, 67.304, 167.149
1225.732, 66.854, 165.365
1243.561, 66.264, 164.920
1261.649, 65.823, 165.785
1280.000, 65.496, 166.364
1298.618, 65.083, 166.146
1317.507, 64.483, 167.326
1336.670, 63.994, 170.283
1356.113, 63.758, 173.591
1375.838, 63.655, 176.312
1395.850, 63.574, 178.519
1416.153, 63.499, -179.357
1436.751, 63.458, -177.335
1457.649, 63.418, -175.253
1478.851, 63.439, -173.021
1500.362, 63.566, -171.693
1522.185, 63.532, -171.030
1544.326, 63.377, -169.467
1566.789, 63.305, -166.941
1589.578, 63.378, -164.390
1612.699, 63.582, -162.237
1636.156, 63.783, -161.401
1659.955, 63.795, -160.853
1684.099, 63.797, -159.147
1708.595, 63.921, -157.368
1733.447, 64.096, -156.577
1758.661, 64.127, -156.072
1784.241, 64.117, -155.112
1810.193, 64.069, -153.902
1836.523, 63.977, -152.203
1863.236, 63.922, -149.869
1890.338, 63.950, -146.662
1917.833, 64.120, -143.268
1945.729, 64.484, -140.142
1974.030, 64.907, -138.141
2002.743, 65.297, -136.642
2031.873, 65.677, -135.435
2061.428, 66.043, -134.456
2091.412, 66.428, -133.527
2121.832, 66.811, -133.089
2152.695, 67.144, -132.724
2184.007, 67.498, -132.345
2215.774, 67.797, -132.198
2248.003, 68.120, -131.670
2280.701, 68.496, -131.237
2313.874, 68.936, -131.124
2347.530, 69.349, -131.784
2381.676, 69.677, -132.473
2416.318, 70.030, -132.953
2451.464, 70.416, -134.030
2487.122, 70.708, -135.321
2523.298, 70.988, -136.548
2560.000, 71.244, -137.881
2597.236, 71.468, -139.143
2635.014, 71.713, -140.477
2673.341, 71.891, -142.135
2712.226, 72.021, -143.453
2751.676, 72.150, -144.624
2791.700, 72.302, -145.513
2832.306, 72.493, -146.654
2873.503, 72.646, -148.114
2915.299, 72.753, -149.410
2957.703, 72.870, -150.567
3000.724, 72.965, -151.710
3044.370, 73.089, -152.723
3088.652, 73.209, -153.785
3133.577, 73.351, -154.843
3179.156, 73.495, -156.046
3225.398, 73.644, -157.472
3272.312, 73.735, -158.819
3319.909, 73.888, -160.096
3368.198, 74.014, -161.686
3417.190, 74.185, -163.207
3466.894, 74.324, -165.394
3517.321, 74.429, -167.562
3568.482, 74.484, -170.250
3620.387, 74.443, -172.613
3673.046, 74.395, -174.911
3726.472, 74.291, -176.990
3780.675, 74.200, -178.906
3835.666, 74.076, 179.244
3891.457, 73.968, 177.528
3948.060, 73.822, 175.747
4005.486, 73.681, 174.181
4063.747, 73.505, 172.532
4122.855, 73.321, 171.162
4182.824, 73.112, 169.951
4243.664, 72.929, 168.958
4305.390, 72.751, 168.017
4368.013, 72.593, 166.984
4431.547, 72.400, 165.925
4496.005, 72.191, 164.984
4561.401, 71.961, 164.275
4627.749, 71.738, 163.851
4695.061, 71.550, 163.662
4763.352, 71.401, 163.439
4832.637, 71.278, 163.083
4902.929, 71.151, 162.553
4974.244, 71.012, 161.885
5046.596, 70.835, 161.181
5120.000, 70.624, 160.607
5194.472, 70.393, 160.304
5270.027, 70.160, 160.254
5346.682, 69.933, 160.517
5424.451, 69.757, 161.054
5503.352, 69.610, 161.440
5583.399, 69.438, 162.004
5664.612, 69.308, 163.078
5747.006, 69.272, 164.353
5830.598, 69.351, 165.504
5915.406, 69.534, 166.143
6001.447, 69.766, 165.995
6088.740, 70.014, 165.030
6177.303, 70.249, 163.074
6267.154, 70.378, 160.054
6358.312, 70.322, 156.511
6450.796, 70.097, 153.041
6544.625, 69.735, 149.882
6639.818, 69.240, 147.364
6736.397, 68.683, 145.775
6834.380, 68.115, 144.834
6933.789, 67.532, 144.543
7034.643, 66.969, 144.920
7136.964, 66.431, 145.887
7240.773, 65.960, 147.623
7346.093, 65.628, 149.581
7452.944, 65.360, 151.370
7561.350, 65.147, 153.254
7671.332, 64.986, 155.094
7782.915, 64.880, 157.216
7896.120, 64.911, 159.528
8010.971, 65.118, 161.663
8127.493, 65.562, 163.044
8245.711, 66.238, 162.643
8365.647, 67.043, 159.134
8487.328, 67.721, 151.430
8610.779, 67.894, 139.275
8736.026, 67.117, 124.703
8863.095, 65.292, 111.683
8992.011, 62.453, 104.042
9122.803, 59.115, 104.971
9255.497, 55.900, 113.896
9390.121, 53.349, 129.067
9526.704, 51.798, 146.772
9665.273, 50.981, 164.749
9805.857, 50.799, -176.527
9948.487, 51.475, -157.688
10093.191, 53.198, -141.400
10240.000, 55.510, -132.249
10388.944, 57.522, -130.610
10540.055, 58.922, -132.761
10693.363, 59.788, -136.158
10848.902, 60.117, -139.191
11006.703, 60.093, -139.211
11166.799, 60.334, -135.822
11329.224, 61.069, -132.659
11494.012, 62.007, -131.598
11661.195, 62.972, -132.240
11830.812, 63.975, -134.814
12002.895, 64.839, -139.996
12177.480, 65.419, -147.126
12354.606, 65.648, -156.007
12534.309, 65.338, -166.265
12716.624, 64.214, -176.315
12901.592, 62.099, 179.386
13089.250, 59.799, -173.595
13279.637, 59.025, -159.241
13472.794, 60.035, -148.661
13668.760, 61.477, -145.991
13867.577, 62.886, -149.235
14069.285, 63.893, -159.017
14273.928, 63.995, -173.438
14481.547, 63.072, 170.517
14692.186, 61.100, 153.865
14905.889, 57.938, 133.644
15122.700, 53.234, 93.009
15342.664, 52.105, 15.967
15565.829, 57.386, -38.205
15792.239, 61.261, -63.421
16021.942, 63.887, -81.383
16254.986, 65.609, -98.647
16491.422, 66.372, -115.916
16731.295, 66.301, -130.366
16974.656, 65.884, -140.977
17221.559, 65.451, -149.618
17472.053, 64.921, -158.145
17726.189, 64.072, -166.492
17984.021, 62.801, -172.724
18245.605, 61.394, -174.652
18510.994, 60.466, -174.025
18780.242, 59.991, -175.362
19053.408, 59.238, -178.912
19330.547, 58.154, -179.507
19611.715, 57.563, -177.376
19896.975, 57.618, -177.151
