* Measurement data measured by REW V5.19
* Source: ASIO MOTU M Series, In 1
* Format: 1M Log Swept Sine, 1 sweep at -3.0 dBFS  With no timing reference
* Dated: 10 Dec, 2021 6:07:23 PM
* REW Settings:
*  C-weighting compensation: Off
*  Target level: 75.0 dB
* Note: ; 
* Measurement: Dec 10 18:07:23
* Smoothing: 1/48 octave
* Frequency Step: 1/48 octave
* Start Frequency: 10.1 Hz
*
* Freq(Hz), SPL(dB), Phase(degrees)
10.145, 56.173, -40.782
10.293, 56.335, -41.424
10.443, 56.505, -42.356
10.595, 56.766, -43.649
10.749, 57.038, -45.097
10.905, 57.252, -46.420
11.064, 57.440, -47.764
11.225, 57.630, -49.281
11.388, 57.812, -50.909
11.554, 57.969, -52.511
11.722, 58.106, -54.098
11.892, 58.226, -55.625
12.065, 58.331, -57.095
12.241, 58.431, -58.498
12.419, 58.526, -59.831
12.599, 58.619, -61.073
12.782, 58.713, -62.252
12.968, 58.814, -63.409
13.157, 58.921, -64.550
13.348, 59.032, -65.687
13.543, 59.146, -66.846
13.740, 59.262, -68.032
13.939, 59.378, -69.244
14.142, 59.492, -70.477
14.348, 59.604, -71.723
14.557, 59.714, -72.978
14.768, 59.821, -74.238
14.983, 59.927, -75.499
15.201, 60.031, -76.761
15.422, 60.133, -78.027
15.646, 60.231, -79.289
15.874, 60.326, -80.537
16.105, 60.416, -81.765
16.339, 60.503, -82.951
16.577, 60.588, -84.085
16.818, 60.673, -85.160
17.063, 60.763, -86.171
17.311, 60.858, -87.128
17.563, 60.963, -88.044
17.818, 61.080, -88.938
18.077, 61.210, -89.847
18.340, 61.352, -90.818
18.607, 61.502, -91.895
18.877, 61.652, -93.119
19.152, 61.789, -94.515
19.431, 61.894, -96.050
19.713, 61.956, -97.618
20.000, 61.969, -99.065
20.291, 61.944, -100.215
20.586, 61.907, -100.932
20.885, 61.902, -101.206
21.189, 61.968, -101.234
21.497, 62.119, -101.391
21.810, 62.323, -102.036
22.127, 62.521, -103.314
22.449, 62.651, -105.085
22.776, 62.677, -106.968
23.107, 62.611, -108.489
23.443, 62.508, -109.305
23.784, 62.456, -109.426
24.130, 62.518, -109.281
24.481, 62.691, -109.490
24.837, 62.904, -110.456
25.198, 63.070, -112.131
25.565, 63.137, -114.103
25.937, 63.111, -115.880
26.314, 63.039, -117.157
26.697, 62.985, -117.957
27.085, 62.981, -118.557
27.479, 63.016, -119.242
27.879, 63.057, -120.098
28.284, 63.083, -121.024
28.696, 63.093, -121.896
29.113, 63.098, -122.661
29.537, 63.107, -123.335
29.966, 63.123, -123.938
30.402, 63.152, -124.506
30.844, 63.196, -125.131
31.293, 63.240, -125.913
31.748, 63.254, -126.822
32.210, 63.226, -127.631
32.678, 63.181, -128.081
33.154, 63.173, -128.179
33.636, 63.235, -128.277
34.125, 63.336, -128.747
34.621, 63.414, -129.601
35.125, 63.437, -130.503
35.636, 63.429, -131.140
36.154, 63.441, -131.499
36.680, 63.489, -131.808
37.214, 63.554, -132.232
37.755, 63.616, -132.718
38.304, 63.677, -133.175
38.861, 63.750, -133.629
39.427, 63.833, -134.183
40.000, 63.910, -134.886
40.582, 63.968, -135.707
41.172, 63.997, -136.552
41.771, 64.005, -137.296
42.379, 64.017, -137.919
42.995, 64.046, -138.617
43.620, 64.056, -139.517
44.255, 64.016, -140.358
44.898, 63.962, -140.835
45.552, 63.946, -141.113
46.214, 63.947, -141.503
46.886, 63.920, -141.834
47.568, 63.898, -141.791
48.260, 63.935, -141.566
48.962, 64.015, -141.543
49.674, 64.089, -141.736
50.397, 64.143, -141.925
51.130, 64.198, -141.967
51.874, 64.287, -141.914
52.628, 64.420, -142.042
53.394, 64.551, -142.537
54.170, 64.640, -143.084
54.958, 64.736, -143.376
55.758, 64.883, -143.785
56.569, 65.011, -144.528
57.391, 65.105, -145.177
58.226, 65.209, -145.757
59.073, 65.300, -146.352
59.932, 65.412, -146.798
60.804, 65.547, -147.590
61.688, 65.619, -148.460
62.586, 65.719, -149.000
63.496, 65.847, -150.002
64.420, 65.899, -151.002
65.357, 65.988, -151.611
66.307, 66.117, -152.559
67.272, 66.207, -153.679
68.250, 66.273, -154.677
69.243, 66.353, -155.475
70.250, 66.459, -156.410
71.272, 66.541, -157.394
72.309, 66.644, -158.342
73.360, 66.740, -159.571
74.427, 66.807, -160.893
75.510, 66.844, -162.272
76.608, 66.874, -163.475
77.723, 66.932, -164.802
78.853, 66.971, -166.271
80.000, 67.005, -167.691
81.164, 67.030, -169.141
82.344, 67.042, -170.541
83.542, 67.039, -171.940
84.757, 67.021, -173.326
85.990, 66.999, -174.753
87.241, 66.970, -176.270
88.510, 66.942, -177.880
89.797, 66.870, -179.635
91.103, 66.768, 179.111
92.428, 66.711, 177.867
93.773, 66.598, 176.575
95.137, 66.488, 175.601
96.520, 66.367, 174.539
97.924, 66.221, 173.948
99.349, 66.177, 173.711
100.794, 66.172, 172.717
102.260, 66.069, 171.607
103.747, 65.959, 170.489
105.256, 65.837, 169.334
106.787, 65.761, 167.964
108.340, 65.662, 166.450
109.916, 65.549, 165.267
111.515, 65.418, 164.304
113.137, 65.328, 163.482
114.783, 65.192, 162.159
116.452, 64.998, 160.599
118.146, 64.800, 159.929
119.865, 64.701, 158.513
121.608, 64.446, 157.128
123.377, 64.193, 156.125
125.171, 63.915, 155.264
126.992, 63.656, 154.551
128.839, 63.398, 153.844
130.713, 63.035, 153.329
132.615, 62.758, 153.298
134.543, 62.484, 153.190
136.500, 62.222, 152.664
138.486, 61.963, 153.425
140.500, 61.703, 153.148
142.544, 61.350, 154.094
144.617, 61.162, 154.732
146.721, 60.906, 154.961
148.855, 60.674, 155.763
151.020, 60.457, 156.585
153.217, 60.234, 157.345
155.445, 60.029, 158.234
157.706, 59.862, 159.039
160.000, 59.688, 160.071
162.327, 59.508, 161.267
164.688, 59.379, 162.264
167.084, 59.258, 163.272
169.514, 59.177, 164.305
171.980, 59.019, 165.275
174.481, 58.866, 165.884
177.019, 58.825, 166.958
179.594, 58.834, 167.690
182.206, 58.711, 169.432
184.856, 58.682, 170.721
187.545, 58.658, 171.258
190.273, 58.614, 171.362
193.041, 58.445, 172.814
195.849, 58.377, 174.144
198.697, 58.300, 175.057
201.587, 58.289, 176.031
204.520, 58.297, 176.830
207.494, 58.241, 178.239
210.512, 58.249, 179.722
213.574, 58.290, -179.804
216.681, 58.249, -179.554
219.833, 58.157, -178.142
223.030, 58.160, -177.048
226.274, 58.176, -176.255
229.565, 58.217, -175.168
232.905, 58.260, -174.442
236.292, 58.284, -173.958
239.729, 58.294, -173.291
243.216, 58.283, -172.577
246.754, 58.279, -171.833
250.343, 58.287, -170.971
253.984, 58.297, -170.237
257.678, 58.326, -169.372
261.426, 58.343, -168.444
265.229, 58.334, -167.699
269.087, 58.368, -167.213
273.001, 58.452, -165.597
276.972, 58.489, -165.724
281.000, 58.465, -164.767
285.088, 58.527, -164.036
289.234, 58.558, -163.202
293.441, 58.606, -162.274
297.710, 58.706, -161.697
302.040, 58.732, -161.060
306.433, 58.762, -160.412
310.890, 58.804, -159.646
315.412, 58.852, -158.824
320.000, 58.916, -158.022
324.655, 58.988, -157.280
329.377, 59.054, -156.570
334.168, 59.121, -155.806
339.028, 59.212, -155.319
343.959, 59.279, -154.780
348.962, 59.350, -154.248
354.038, 59.454, -153.794
359.188, 59.542, -153.182
364.412, 59.592, -152.626
369.713, 59.647, -152.211
375.090, 59.723, -151.722
380.546, 59.809, -151.217
386.081, 59.931, -150.791
391.697, 59.985, -150.134
397.395, 60.063, -149.738
403.175, 60.152, -149.338
409.039, 60.235, -148.869
414.989, 60.348, -148.433
421.025, 60.419, -148.389
427.149, 60.518, -147.853
433.362, 60.621, -147.321
439.665, 60.721, -146.998
446.060, 60.800, -146.933
452.548, 60.890, -146.841
459.131, 60.940, -146.820
465.809, 60.964, -146.724
472.584, 60.990, -146.323
479.458, 61.028, -145.732
486.432, 61.091, -145.162
493.507, 61.169, -144.677
500.686, 61.244, -144.218
507.968, 61.305, -143.760
515.357, 61.370, -143.243
522.853, 61.441, -142.626
530.458, 61.520, -142.009
538.174, 61.607, -141.459
546.002, 61.728, -140.835
553.943, 61.836, -140.150
562.001, 61.985, -139.578
570.175, 62.149, -139.181
578.469, 62.296, -138.942
586.883, 62.445, -138.964
595.419, 62.525, -138.689
604.080, 62.652, -138.494
612.866, 62.753, -138.141
621.780, 62.860, -137.760
630.824, 62.993, -137.381
640.000, 63.143, -137.003
649.309, 63.321, -136.713
658.753, 63.526, -136.683
668.335, 63.724, -137.049
678.056, 63.866, -137.771
687.919, 63.920, -138.509
697.925, 63.904, -138.785
708.076, 63.897, -138.423
718.376, 63.961, -137.737
728.825, 64.092, -137.176
739.426, 64.243, -136.847
750.181, 64.398, -136.664
761.093, 64.551, -136.663
772.163, 64.688, -136.822
783.394, 64.802, -136.910
794.789, 64.911, -136.907
806.349, 65.030, -136.853
818.078, 65.161, -136.811
829.977, 65.303, -136.809
842.050, 65.451, -136.914
854.297, 65.596, -137.090
866.724, 65.739, -137.376
879.330, 65.850, -137.797
892.120, 65.932, -137.994
905.097, 66.038, -137.965
918.262, 66.193, -137.955
931.618, 66.368, -138.195
945.169, 66.544, -138.731
958.917, 66.696, -139.490
972.864, 66.823, -140.530
987.015, 66.870, -141.889
1001.371, 66.788, -142.876
1015.937, 66.674, -143.032
1030.714, 66.588, -142.522
1045.706, 66.586, -141.431
1060.916, 66.710, -140.340
1076.347, 66.897, -139.672
1092.003, 67.097, -139.355
1107.887, 67.293, -139.202
1124.001, 67.512, -139.084
1140.350, 67.772, -139.376
1156.937, 67.981, -140.106
1173.765, 68.155, -140.655
1190.838, 68.375, -141.308
1208.159, 68.586, -142.499
1225.732, 68.734, -144.086
1243.561, 68.766, -145.898
1261.649, 68.640, -147.223
1280.000, 68.463, -147.056
1298.618, 68.479, -145.793
1317.507, 68.688, -145.039
1336.670, 68.921, -145.020
1356.113, 69.152, -145.275
1375.838, 69.415, -145.866
1395.850, 69.675, -147.026
1416.153, 69.877, -148.721
1436.751, 69.975, -150.617
1457.649, 69.972, -152.151
1478.851, 69.979, -153.090
1500.362, 70.034, -154.034
1522.185, 70.075, -155.233
1544.326, 70.058, -156.326
1566.789, 70.059, -156.977
1589.578, 70.127, -157.832
1612.699, 70.156, -159.284
1636.156, 70.061, -160.678
1659.955, 69.923, -161.302
1684.099, 69.803, -161.518
1708.595, 69.722, -161.258
1733.447, 69.717, -160.863
1758.661, 69.778, -160.547
1784.241, 69.870, -160.561
1810.193, 69.947, -160.879
1836.523, 69.968, -161.201
1863.236, 69.981, -160.946
1890.338, 70.089, -160.376
1917.833, 70.301, -160.091
1945.729, 70.551, -160.496
1974.030, 70.768, -161.401
2002.743, 70.940, -162.629
2031.873, 71.054, -163.854
2061.428, 71.158, -164.992
2091.412, 71.231, -166.213
2121.832, 71.273, -167.090
2152.695, 71.377, -167.704
2184.007, 71.539, -168.592
2215.774, 71.716, -169.947
2248.003, 71.855, -171.791
2280.701, 71.927, -173.844
2313.874, 71.930, -175.858
2347.530, 71.890, -177.621
2381.676, 71.844, -179.124
2416.318, 71.802, 179.510
2451.464, 71.785, 178.261
2487.122, 71.798, 176.628
2523.298, 71.732, 174.702
2560.000, 71.614, 172.924
2597.236, 71.417, 171.517
2635.014, 71.262, 170.853
2673.341, 71.172, 170.021
2712.226, 71.066, 169.106
2751.676, 70.945, 168.486
2791.700, 70.907, 168.117
2832.306, 70.949, 167.171
2873.503, 70.930, 165.347
2915.299, 70.747, 163.670
2957.703, 70.548, 162.897
3000.724, 70.417, 162.382
3044.370, 70.345, 161.861
3088.652, 70.315, 160.892
3133.577, 70.230, 159.561
3179.156, 70.120, 158.370
3225.398, 70.009, 156.945
3272.312, 69.839, 155.376
3319.909, 69.611, 153.899
3368.198, 69.334, 152.742
3417.190, 69.048, 151.942
3466.894, 68.762, 151.303
3517.321, 68.445, 150.909
3568.482, 68.131, 151.141
3620.387, 67.916, 151.749
3673.046, 67.796, 152.026
3726.472, 67.684, 151.454
3780.675, 67.396, 150.346
3835.666, 66.902, 150.750
3891.457, 66.561, 153.234
3948.060, 66.557, 156.060
4005.486, 66.814, 157.671
4063.747, 67.164, 157.299
4122.855, 67.362, 154.593
4182.824, 67.104, 151.294
4243.664, 66.596, 150.733
4305.390, 66.356, 151.930
4368.013, 66.343, 152.038
4431.547, 66.212, 151.205
4496.005, 66.036, 150.887
4561.401, 65.873, 150.058
4627.749, 65.554, 149.413
4695.061, 65.239, 149.784
4763.352, 64.965, 150.221
4832.637, 64.662, 151.409
4902.929, 64.558, 153.153
4974.244, 64.537, 153.872
5046.596, 64.446, 154.517
5120.000, 64.421, 155.544
5194.472, 64.517, 156.006
5270.027, 64.552, 155.461
5346.682, 64.491, 155.357
5424.451, 64.590, 155.337
5503.352, 64.688, 153.668
5583.399, 64.562, 151.740
5664.612, 64.433, 150.357
5747.006, 64.309, 148.155
5830.598, 64.010, 145.252
5915.406, 63.455, 142.615
6001.447, 62.718, 141.444
6088.740, 61.964, 141.868
6177.303, 61.341, 143.490
6267.154, 60.843, 144.833
6358.312, 60.291, 146.362
6450.796, 59.744, 148.358
6544.625, 59.185, 151.174
6639.818, 58.807, 154.827
6736.397, 58.591, 157.304
6834.380, 58.176, 158.975
6933.789, 57.575, 161.970
7034.643, 56.976, 166.632
7136.964, 56.431, 172.997
7240.773, 56.089, -177.922
7346.093, 56.440, -166.964
7452.944, 57.568, -157.980
7561.350, 59.037, -153.240
7671.332, 60.485, -152.659
7782.915, 61.639, -155.406
7896.120, 62.379, -159.256
8010.971, 62.932, -162.639
8127.493, 63.467, -166.021
8245.711, 64.029, -170.152
8365.647, 64.545, -175.815
8487.328, 64.920, 176.520
8610.779, 64.947, 166.751
8736.026, 64.504, 155.971
8863.095, 63.589, 143.797
8992.011, 61.520, 133.070
9122.803, 58.890, 129.088
9255.497, 56.054, 129.119
9390.121, 52.745, 135.962
9526.704, 49.451, 154.120
9665.273, 47.635, -177.884
9805.857, 48.308, -151.109
9948.487, 49.694, -131.378
10093.191, 52.008, -112.333
10240.000, 55.335, -100.600
10388.944, 58.640, -97.990
10540.055, 61.866, -102.297
10693.363, 64.430, -116.549
10848.902, 65.229, -136.855
11006.703, 64.458, -151.922
11166.799, 63.228, -158.626
11329.224, 62.214, -159.495
11494.012, 61.803, -157.217
11661.195, 62.074, -155.203
11830.812, 62.779, -156.331
12002.895, 63.500, -161.970
12177.480, 63.666, -172.729
12354.606, 62.545, 176.228
12534.309, 60.428, 175.452
12716.624, 59.507, -175.001
12901.592, 60.511, -170.557
13089.250, 61.396, -176.809
13279.637, 61.283, 172.877
13472.794, 60.313, 164.146
13668.760, 58.989, 159.559
13867.577, 57.948, 157.196
14069.285, 57.237, 151.765
14273.928, 56.115, 139.300
14481.547, 53.413, 117.138
14692.186, 48.015, 66.076
14905.889, 47.776, -41.000
15122.700, 52.469, -104.182
15342.664, 53.803, -131.330
15565.829, 53.386, -143.851
15792.239, 52.584, -147.813
16021.942, 51.768, -149.083
16254.986, 50.363, -146.310
16491.422, 49.379, -130.738
16731.295, 51.228, -114.505
16974.656, 54.082, -112.023
17221.559, 56.125, -122.225
17472.053, 56.836, -138.916
17726.189, 55.811, -155.438
17984.021, 53.549, -161.599
18245.605, 51.644, -158.602
18510.994, 50.629, -153.817
18780.242, 49.987, -149.970
19053.408, 49.523, -145.581
19330.547, 49.606, -142.046
19611.715, 49.602, -143.189
19896.975, 49.022, -143.780
