* Measurement data measured by REW V5.19
* Source: ASIO MOTU M Series, In 1
* Format: 1M Log Swept Sine, 1 sweep at -3.0 dBFS  With no timing reference
* Dated: 15 Feb, 2021 4:45:54 PM
* REW Settings:
*  C-weighting compensation: Off
*  Target level: 75.0 dB
* Note: ; 
* Measurement: Feb 15 16:45:54
* Smoothing: 1/48 octave
* Frequency Step: 1/48 octave
* Start Frequency: 10.1 Hz
*
* Freq(Hz), SPL(dB), Phase(degrees)
10.145, 53.013, 160.860
10.293, 53.145, 160.411
10.443, 53.284, 159.788
10.595, 53.518, 158.967
10.749, 53.778, 158.059
10.905, 54.018, 157.246
11.064, 54.258, 156.397
11.225, 54.512, 155.310
11.388, 54.770, 154.051
11.554, 55.012, 152.723
11.722, 55.238, 151.322
11.892, 55.446, 149.925
12.065, 55.637, 148.537
12.241, 55.817, 147.222
12.419, 55.988, 145.988
12.599, 56.158, 144.897
12.782, 56.333, 143.914
12.968, 56.524, 143.011
13.157, 56.731, 142.144
13.348, 56.957, 141.284
13.543, 57.196, 140.356
13.740, 57.447, 139.338
13.939, 57.697, 138.207
14.142, 57.942, 136.980
14.348, 58.173, 135.680
14.557, 58.389, 134.368
14.768, 58.587, 133.075
14.983, 58.775, 131.868
15.201, 58.957, 130.751
15.422, 59.142, 129.735
15.646, 59.338, 128.771
15.874, 59.545, 127.812
16.105, 59.764, 126.805
16.339, 59.985, 125.691
16.577, 60.201, 124.477
16.818, 60.403, 123.174
17.063, 60.584, 121.847
17.311, 60.749, 120.567
17.563, 60.906, 119.372
17.818, 61.064, 118.281
18.077, 61.239, 117.245
18.340, 61.434, 116.160
18.607, 61.644, 114.935
18.877, 61.856, 113.504
19.152, 62.052, 111.856
19.431, 62.215, 110.088
19.713, 62.342, 108.348
20.000, 62.443, 106.776
20.291, 62.541, 105.452
20.586, 62.664, 104.356
20.885, 62.835, 103.340
21.189, 63.056, 102.174
21.497, 63.304, 100.664
21.810, 63.540, 98.756
22.127, 63.730, 96.563
22.449, 63.855, 94.317
22.776, 63.919, 92.291
23.107, 63.951, 90.695
23.443, 63.997, 89.566
23.784, 64.095, 88.731
24.130, 64.257, 87.864
24.481, 64.455, 86.663
24.837, 64.634, 85.028
25.198, 64.746, 83.129
25.565, 64.769, 81.340
25.937, 64.732, 80.049
26.314, 64.702, 79.406
26.697, 64.750, 79.155
27.085, 64.895, 78.727
27.479, 65.078, 77.654
27.879, 65.210, 75.947
28.284, 65.242, 74.081
28.696, 65.204, 72.587
29.113, 65.182, 71.604
29.537, 65.241, 70.685
29.966, 65.346, 69.234
30.402, 65.396, 67.190
30.844, 65.330, 65.188
31.293, 65.209, 64.014
31.748, 65.182, 63.704
32.210, 65.336, 63.333
32.678, 65.572, 61.904
33.154, 65.717, 59.451
33.636, 65.688, 56.973
34.125, 65.554, 55.422
34.621, 65.460, 54.844
35.125, 65.474, 54.492
35.636, 65.533, 53.798
36.154, 65.549, 52.894
36.680, 65.521, 52.209
37.214, 65.492, 51.895
37.755, 65.498, 51.805
38.304, 65.547, 51.778
38.861, 65.643, 51.648
39.427, 65.773, 51.256
40.000, 65.913, 50.596
40.582, 66.071, 49.735
41.172, 66.254, 48.464
41.771, 66.404, 46.554
42.379, 66.441, 44.380
42.995, 66.395, 42.685
43.620, 66.377, 41.441
44.255, 66.382, 39.977
44.898, 66.305, 38.398
45.552, 66.171, 37.533
46.214, 66.129, 37.217
46.886, 66.166, 36.387
47.568, 66.128, 35.098
48.260, 66.027, 34.265
48.962, 65.988, 33.770
49.674, 65.989, 32.968
50.397, 65.963, 32.011
51.130, 65.934, 31.126
51.874, 65.900, 30.168
52.628, 65.835, 29.273
53.394, 65.758, 28.676
54.170, 65.715, 28.368
54.958, 65.743, 27.964
55.758, 65.768, 26.906
56.569, 65.680, 25.853
57.391, 65.615, 25.473
58.226, 65.619, 24.653
59.073, 65.514, 23.739
59.932, 65.459, 23.614
60.804, 65.477, 22.741
61.688, 65.331, 21.950
62.586, 65.275, 22.182
63.496, 65.299, 21.308
64.420, 65.122, 20.471
65.357, 64.998, 20.793
66.307, 65.001, 20.809
67.272, 65.000, 20.399
68.250, 64.953, 20.010
69.243, 64.923, 20.231
70.250, 64.981, 20.349
71.272, 64.999, 20.184
72.309, 64.987, 20.086
73.360, 64.913, 20.076
74.427, 64.893, 20.339
75.510, 64.876, 19.556
76.608, 64.735, 18.898
77.723, 64.654, 18.334
78.853, 64.551, 17.830
80.000, 64.542, 17.633
81.164, 64.541, 17.309
82.344, 64.576, 17.188
83.542, 64.566, 16.948
84.757, 64.559, 17.151
85.990, 64.561, 17.059
87.241, 64.554, 17.023
88.510, 64.562, 16.521
89.797, 64.500, 15.996
91.103, 64.448, 15.763
92.428, 64.422, 15.620
93.773, 64.411, 15.516
95.137, 64.408, 15.373
96.520, 64.391, 15.306
97.924, 64.364, 15.306
99.349, 64.391, 15.427
100.794, 64.356, 14.774
102.260, 64.273, 14.951
103.747, 64.277, 14.854
105.256, 64.251, 14.675
106.787, 64.224, 14.623
108.340, 64.228, 14.842
109.916, 64.266, 14.735
111.515, 64.271, 14.682
113.137, 64.275, 14.445
114.783, 64.211, 14.361
116.452, 64.170, 14.509
118.146, 64.153, 14.688
119.865, 64.179, 14.633
121.608, 64.156, 14.461
123.377, 64.136, 14.539
125.171, 64.122, 14.424
126.992, 64.084, 14.242
128.839, 64.103, 14.306
130.713, 64.151, 14.112
132.615, 64.125, 14.361
134.543, 64.150, 14.415
136.500, 64.062, 14.170
138.486, 64.035, 14.900
140.500, 64.136, 14.437
142.544, 64.116, 13.879
144.617, 64.126, 13.698
146.721, 64.115, 13.382
148.855, 64.063, 13.866
151.020, 64.006, 14.066
153.217, 63.892, 13.912
155.445, 63.911, 13.890
157.706, 64.077, 14.183
160.000, 64.159, 14.414
162.327, 64.079, 14.925
164.688, 64.026, 15.119
167.084, 64.052, 14.816
169.514, 64.093, 14.907
171.980, 64.066, 15.009
174.481, 64.060, 15.034
177.019, 64.072, 14.874
179.594, 64.068, 15.212
182.206, 64.065, 15.410
184.856, 64.077, 15.623
187.545, 64.102, 15.434
190.273, 64.100, 15.644
193.041, 64.097, 15.808
195.849, 64.118, 15.544
198.697, 64.119, 15.549
201.587, 64.149, 15.763
204.520, 64.156, 15.974
207.494, 64.143, 16.166
210.512, 64.148, 16.189
213.574, 64.154, 16.321
216.681, 64.183, 16.618
219.833, 64.181, 16.742
223.030, 64.181, 16.894
226.274, 64.204, 16.934
229.565, 64.198, 17.133
232.905, 64.195, 17.433
236.292, 64.191, 17.821
239.729, 64.196, 18.076
243.216, 64.205, 18.686
246.754, 64.258, 19.641
250.343, 64.364, 20.581
253.984, 64.594, 21.248
257.678, 64.819, 20.720
261.426, 64.915, 20.034
265.229, 64.954, 19.598
269.087, 64.986, 19.124
273.001, 64.996, 18.760
276.972, 65.029, 18.602
281.000, 65.051, 18.650
285.088, 65.089, 18.659
289.234, 65.126, 18.751
293.441, 65.169, 18.853
297.710, 65.231, 18.942
302.040, 65.295, 18.846
306.433, 65.346, 18.775
310.890, 65.438, 18.632
315.412, 65.520, 18.795
320.000, 65.623, 18.225
324.655, 65.629, 17.876
329.377, 65.632, 17.969
334.168, 65.767, 17.843
339.028, 65.977, 17.164
343.959, 66.126, 16.641
348.962, 66.167, 15.366
354.038, 66.302, 14.517
359.188, 66.391, 12.884
364.412, 66.417, 11.068
369.713, 66.394, 8.787
375.090, 66.155, 6.140
380.546, 65.681, 4.130
386.081, 65.088, 5.320
391.697, 64.794, 8.383
397.395, 64.690, 10.290
403.175, 64.793, 11.852
409.039, 65.097, 13.147
414.989, 65.416, 12.046
421.025, 65.659, 10.031
427.149, 65.804, 6.870
433.362, 65.584, 2.452
439.665, 64.798, -1.228
446.060, 63.606, -0.155
452.548, 62.827, 5.664
459.131, 62.716, 11.759
465.809, 62.926, 15.830
472.584, 63.190, 18.407
479.458, 63.426, 20.023
486.432, 63.636, 21.316
493.507, 63.824, 22.138
500.686, 63.980, 22.755
507.968, 64.102, 23.408
515.357, 64.227, 24.015
522.853, 64.352, 24.788
530.458, 64.481, 25.440
538.174, 64.621, 25.959
546.002, 64.751, 26.359
553.943, 64.870, 26.824
562.001, 64.998, 27.390
570.175, 65.150, 27.752
578.469, 65.304, 28.025
586.883, 65.458, 28.126
595.419, 65.594, 28.185
604.080, 65.719, 28.080
612.866, 65.817, 27.896
621.780, 65.877, 27.587
630.824, 65.870, 27.671
640.000, 65.902, 28.215
649.309, 65.955, 28.656
658.753, 65.989, 29.230
668.335, 66.009, 30.336
678.056, 66.101, 32.076
687.919, 66.332, 34.249
697.925, 66.827, 36.231
708.076, 67.475, 35.762
718.376, 67.860, 33.211
728.825, 68.095, 31.369
739.426, 68.234, 29.552
750.181, 68.270, 27.745
761.093, 68.164, 26.639
772.163, 68.083, 26.964
783.394, 68.183, 27.655
794.789, 68.381, 27.983
806.349, 68.610, 27.767
818.078, 68.835, 27.480
829.977, 69.135, 26.514
842.050, 69.357, 24.733
854.297, 69.449, 22.939
866.724, 69.494, 21.822
879.330, 69.636, 20.564
892.120, 69.726, 18.571
905.097, 69.615, 16.208
918.262, 69.390, 15.508
931.618, 69.309, 15.480
945.169, 69.241, 15.306
958.917, 69.222, 15.657
972.864, 69.297, 16.208
987.015, 69.475, 16.021
1001.371, 69.565, 15.756
1015.937, 69.794, 15.496
1030.714, 70.011, 14.327
1045.706, 70.163, 12.496
1060.916, 70.188, 11.013
1076.347, 70.263, 9.895
1092.003, 70.381, 7.937
1107.887, 70.298, 5.847
1124.001, 70.198, 4.443
1140.350, 70.131, 2.869
1156.937, 69.908, 1.635
1173.765, 69.654, 1.170
1190.838, 69.455, 2.509
1208.159, 69.646, 4.963
1225.732, 70.336, 4.624
1243.561, 70.723, 0.417
1261.649, 70.751, -3.980
1280.000, 70.627, -8.076
1298.618, 70.243, -11.638
1317.507, 69.834, -14.127
1336.670, 69.281, -16.388
1356.113, 68.539, -15.993
1375.838, 68.321, -13.002
1395.850, 68.593, -13.559
1416.153, 68.410, -16.918
1436.751, 67.892, -18.419
1457.649, 67.490, -19.033
1478.851, 66.975, -19.820
1500.362, 66.417, -19.196
1522.185, 65.914, -17.889
1544.326, 65.526, -16.372
1566.789, 65.129, -14.394
1589.578, 64.794, -12.350
1612.699, 64.522, -9.874
1636.156, 64.263, -7.702
1659.955, 63.984, -4.768
1684.099, 63.963, -1.042
1708.595, 63.985, 0.324
1733.447, 63.709, 2.634
1758.661, 63.635, 6.523
1784.241, 63.775, 10.225
1810.193, 63.957, 12.985
1836.523, 64.265, 15.861
1863.236, 64.552, 16.430
1890.338, 64.563, 17.735
1917.833, 64.696, 19.821
1945.729, 64.695, 21.631
1974.030, 64.834, 25.308
2002.743, 65.233, 28.612
2031.873, 65.715, 30.813
2061.428, 66.186, 32.628
2091.412, 66.685, 34.088
2121.832, 67.337, 35.010
2152.695, 67.800, 34.816
2184.007, 68.345, 35.012
2215.774, 68.826, 34.258
2248.003, 69.305, 34.159
2280.701, 69.910, 32.627
2313.874, 70.271, 30.930
2347.530, 70.710, 29.434
2381.676, 71.140, 27.521
2416.318, 71.482, 24.924
2451.464, 71.792, 22.518
2487.122, 72.019, 19.809
2523.298, 72.188, 17.308
2560.000, 72.368, 14.784
2597.236, 72.505, 12.695
2635.014, 72.718, 9.760
2673.341, 72.723, 7.092
2712.226, 72.838, 5.102
2751.676, 72.998, 2.258
2791.700, 73.087, -1.241
2832.306, 73.017, -4.862
2873.503, 72.855, -8.121
2915.299, 72.621, -10.695
2957.703, 72.424, -12.801
3000.724, 72.186, -14.683
3044.370, 72.051, -15.713
3088.652, 72.099, -17.882
3133.577, 71.904, -21.453
3179.156, 71.556, -23.547
3225.398, 71.268, -25.320
3272.312, 71.063, -27.065
3319.909, 70.788, -29.719
3368.198, 70.347, -32.255
3417.190, 69.788, -33.957
3466.894, 69.227, -34.699
3517.321, 68.670, -34.953
3568.482, 68.175, -34.729
3620.387, 67.488, -34.546
3673.046, 66.825, -30.477
3726.472, 66.841, -25.863
3780.675, 67.198, -24.817
3835.666, 67.125, -25.759
3891.457, 67.033, -25.767
3948.060, 66.885, -25.491
4005.486, 66.839, -25.850
4063.747, 66.619, -25.992
4122.855, 66.469, -24.732
4182.824, 66.763, -25.021
4243.664, 66.572, -29.478
4305.390, 65.739, -30.119
4368.013, 65.274, -27.107
4431.547, 65.277, -25.093
4496.005, 65.178, -25.487
4561.401, 64.898, -24.625
4627.749, 64.887, -23.162
4695.061, 64.956, -25.547
4763.352, 64.087, -24.525
4832.637, 64.336, -19.692
4902.929, 64.799, -21.648
4974.244, 64.993, -27.468
5046.596, 63.878, -33.675
5120.000, 62.756, -33.552
5194.472, 61.496, -34.435
5270.027, 59.749, -32.536
5346.682, 57.539, -17.840
5424.451, 57.900, -1.035
5503.352, 58.027, 5.193
5583.399, 57.914, 17.065
5664.612, 58.749, 30.498
5747.006, 60.267, 41.410
5830.598, 62.175, 48.364
5915.406, 64.275, 50.250
6001.447, 65.942, 48.098
6088.740, 67.179, 44.468
6177.303, 68.362, 41.639
6267.154, 69.691, 37.114
6358.312, 70.810, 29.555
6450.796, 71.491, 19.846
6544.625, 71.616, 9.958
6639.818, 71.375, 1.928
6736.397, 70.993, -4.787
6834.380, 70.481, -10.279
6933.789, 69.870, -14.809
7034.643, 69.152, -17.902
7136.964, 68.451, -19.328
7240.773, 67.854, -19.870
7346.093, 67.260, -19.710
7452.944, 66.786, -17.582
7561.350, 66.624, -15.167
7671.332, 66.617, -12.558
7782.915, 66.960, -10.337
7896.120, 67.642, -8.096
8010.971, 68.969, -9.319
8127.493, 70.258, -16.839
8245.711, 71.096, -29.893
8365.647, 71.037, -46.152
8487.328, 70.272, -63.739
8610.779, 68.342, -80.024
8736.026, 65.755, -89.335
8863.095, 63.463, -96.760
8992.011, 61.213, -108.389
9122.803, 58.148, -126.446
9255.497, 53.771, -151.853
9390.121, 48.663, -173.531
9526.704, 51.011, 165.439
9665.273, 55.333, 139.277
9805.857, 59.183, 128.249
9948.487, 63.236, 115.524
10093.191, 65.902, 100.206
10240.000, 67.698, 86.696
10388.944, 69.770, 75.227
10540.055, 71.009, 56.288
10693.363, 70.892, 40.979
10848.902, 70.418, 31.185
11006.703, 70.039, 27.695
11166.799, 70.751, 25.404
11329.224, 71.706, 17.251
11494.012, 72.336, 4.272
11661.195, 71.771, -9.202
11830.812, 71.274, -17.301
12002.895, 71.057, -30.913
12177.480, 69.649, -45.134
12354.606, 67.479, -58.403
12534.309, 63.989, -56.115
12716.624, 62.147, -52.102
12901.592, 59.879, -40.506
13089.250, 60.646, -23.014
13279.637, 63.354, -22.051
13472.794, 65.061, -38.238
13668.760, 65.972, -59.238
13867.577, 66.947, -89.451
14069.285, 66.966, -126.770
14273.928, 67.476, -164.994
14481.547, 67.732, 154.666
14692.186, 67.340, 124.475
14905.889, 67.274, 103.219
15122.700, 67.126, 87.699
15342.664, 67.203, 76.641
15565.829, 67.168, 65.703
15792.239, 66.599, 58.794
16021.942, 66.337, 57.571
16254.986, 66.598, 57.214
16491.422, 67.437, 58.220
16731.295, 68.979, 55.082
16974.656, 70.493, 46.934
17221.559, 71.691, 32.104
17472.053, 71.505, 13.179
17726.189, 70.154, 0.967
17984.021, 68.981, -6.006
18245.605, 67.909, -12.660
18510.994, 66.610, -16.738
18780.242, 65.679, -19.734
19053.408, 64.545, -21.656
19330.547, 63.988, -23.801
19611.715, 62.883, -28.393
19896.975, 61.461, -27.478
