* Measurement data measured by REW V5.19
* Source: ASIO MOTU M Series, In 1
* Format: 1M Log Swept Sine, 1 sweep at -3.0 dBFS  With no timing reference
* Dated: 15 Feb, 2021 4:20:24 PM
* REW Settings:
*  C-weighting compensation: Off
*  Target level: 75.0 dB
* Note: ; 
* Measurement: Feb 15 16:20:24
* Smoothing: 1/48 octave
* Frequency Step: 1/48 octave
* Start Frequency: 10.1 Hz
*
* Freq(Hz), SPL(dB), Phase(degrees)
10.145, 60.124, 117.497
10.293, 60.192, 116.767
10.443, 60.263, 115.768
10.595, 60.381, 114.452
10.749, 60.509, 113.039
10.905, 60.622, 111.872
11.064, 60.729, 110.745
11.225, 60.842, 109.390
11.388, 60.954, 107.892
11.554, 61.050, 106.373
11.722, 61.133, 104.823
11.892, 61.201, 103.299
12.065, 61.255, 101.803
12.241, 61.303, 100.377
12.419, 61.348, 99.026
12.599, 61.401, 97.803
12.782, 61.465, 96.653
12.968, 61.552, 95.511
13.157, 61.659, 94.316
13.348, 61.787, 93.020
13.543, 61.920, 91.547
13.740, 62.054, 89.874
13.939, 62.167, 88.026
14.142, 62.253, 86.058
14.348, 62.300, 84.052
14.557, 62.310, 82.153
14.768, 62.285, 80.430
14.983, 62.243, 79.025
15.201, 62.203, 77.932
15.422, 62.183, 77.162
15.646, 62.206, 76.576
15.874, 62.272, 76.049
16.105, 62.381, 75.453
16.339, 62.511, 74.661
16.577, 62.645, 73.682
16.818, 62.770, 72.536
17.063, 62.873, 71.313
17.311, 62.958, 70.085
17.563, 63.028, 68.877
17.818, 63.085, 67.694
18.077, 63.127, 66.507
18.340, 63.145, 65.333
18.607, 63.129, 64.256
18.877, 63.079, 63.413
19.152, 63.010, 62.988
19.431, 62.966, 63.095
19.713, 63.002, 63.581
20.000, 63.150, 64.076
20.291, 63.400, 64.120
20.586, 63.699, 63.339
20.885, 63.965, 61.636
21.189, 64.128, 59.254
21.497, 64.150, 56.671
21.810, 64.042, 54.409
22.127, 63.854, 52.863
22.449, 63.662, 52.148
22.776, 63.539, 52.048
23.107, 63.511, 52.045
23.443, 63.554, 51.871
23.784, 63.619, 51.315
24.130, 63.671, 50.515
24.481, 63.703, 49.647
24.837, 63.726, 48.791
25.198, 63.746, 47.925
25.565, 63.758, 47.029
25.937, 63.752, 46.175
26.314, 63.736, 45.477
26.697, 63.734, 44.960
27.085, 63.764, 44.485
27.479, 63.817, 43.851
27.879, 63.861, 43.003
28.284, 63.871, 42.091
28.696, 63.855, 41.314
29.113, 63.841, 40.719
29.537, 63.845, 40.164
29.966, 63.853, 39.511
30.402, 63.843, 38.802
30.844, 63.811, 38.201
31.293, 63.780, 37.784
31.748, 63.768, 37.463
32.210, 63.770, 37.130
32.678, 63.774, 36.802
33.154, 63.788, 36.538
33.636, 63.825, 36.278
34.125, 63.881, 35.889
34.621, 63.933, 35.343
35.125, 63.972, 34.730
35.636, 64.004, 34.091
36.154, 64.024, 33.395
36.680, 64.021, 32.696
37.214, 63.999, 32.141
37.755, 63.986, 31.745
38.304, 63.990, 31.345
38.861, 63.991, 30.857
39.427, 63.980, 30.403
40.000, 63.975, 30.024
40.582, 63.980, 29.554
41.172, 63.962, 28.969
41.771, 63.910, 28.530
42.379, 63.862, 28.408
42.995, 63.854, 28.410
43.620, 63.870, 28.311
44.255, 63.882, 28.167
44.898, 63.897, 28.148
45.552, 63.947, 28.261
46.214, 64.052, 28.249
46.886, 64.179, 27.792
47.568, 64.260, 26.976
48.260, 64.293, 26.258
48.962, 64.341, 25.659
49.674, 64.394, 24.724
50.397, 64.369, 23.602
51.130, 64.291, 22.934
51.874, 64.260, 22.565
52.628, 64.249, 21.935
53.394, 64.186, 21.330
54.170, 64.129, 21.152
54.958, 64.129, 21.018
55.758, 64.133, 20.693
56.569, 64.123, 20.450
57.391, 64.125, 20.252
58.226, 64.116, 20.000
59.073, 64.097, 19.839
59.932, 64.078, 19.644
60.804, 64.043, 19.586
61.688, 64.075, 19.592
62.586, 64.114, 18.865
63.496, 64.043, 18.282
64.420, 64.038, 18.222
65.357, 64.028, 17.746
66.307, 63.966, 18.249
67.272, 64.137, 19.100
68.250, 64.347, 18.474
69.243, 64.410, 17.138
70.250, 64.263, 15.660
71.272, 63.949, 15.634
72.309, 63.814, 16.769
73.360, 63.841, 17.129
74.427, 63.863, 16.796
75.510, 63.878, 16.337
76.608, 63.906, 15.832
77.723, 63.931, 15.403
78.853, 63.945, 15.039
80.000, 63.934, 15.035
81.164, 63.962, 14.927
82.344, 63.916, 14.739
83.542, 63.917, 14.673
84.757, 63.860, 14.306
85.990, 63.842, 14.496
87.241, 63.889, 14.455
88.510, 63.947, 13.942
89.797, 63.881, 13.440
91.103, 63.858, 13.516
92.428, 63.871, 13.253
93.773, 63.843, 12.834
95.137, 63.838, 13.170
96.520, 63.980, 12.951
97.924, 63.940, 12.066
99.349, 63.806, 12.531
100.794, 63.805, 13.167
102.260, 63.824, 13.333
103.747, 63.846, 12.905
105.256, 63.802, 12.622
106.787, 63.840, 12.630
108.340, 63.877, 12.144
109.916, 63.824, 11.916
111.515, 63.789, 12.123
113.137, 63.823, 12.267
114.783, 63.818, 12.011
116.452, 63.799, 12.095
118.146, 63.819, 12.172
119.865, 63.832, 11.864
121.608, 63.820, 11.722
123.377, 63.839, 11.399
125.171, 63.801, 11.278
126.992, 63.777, 11.660
128.839, 63.806, 12.047
130.713, 63.846, 11.832
132.615, 63.838, 11.667
134.543, 63.803, 11.485
136.500, 63.799, 11.717
138.486, 63.827, 11.581
140.500, 63.831, 11.248
142.544, 63.803, 10.930
144.617, 63.763, 10.872
146.721, 63.744, 11.046
148.855, 63.775, 11.208
151.020, 63.766, 11.002
153.217, 63.740, 11.049
155.445, 63.716, 11.051
157.706, 63.703, 11.048
160.000, 63.707, 11.406
162.327, 63.758, 11.439
164.688, 63.709, 11.300
167.084, 63.674, 11.570
169.514, 63.679, 11.897
171.980, 63.673, 11.867
174.481, 63.707, 11.907
177.019, 63.728, 11.776
179.594, 63.783, 12.107
182.206, 63.784, 12.117
184.856, 63.788, 12.313
187.545, 63.850, 12.337
190.273, 63.889, 12.275
193.041, 63.895, 12.306
195.849, 63.957, 12.234
198.697, 63.980, 12.314
201.587, 63.991, 12.407
204.520, 64.027, 12.352
207.494, 64.054, 12.132
210.512, 64.076, 12.134
213.574, 64.117, 11.923
216.681, 64.170, 11.675
219.833, 64.194, 11.517
223.030, 64.216, 11.363
226.274, 64.247, 10.983
229.565, 64.269, 10.449
232.905, 64.281, 9.952
236.292, 64.270, 9.442
239.729, 64.228, 8.679
243.216, 64.144, 8.045
246.754, 64.040, 7.499
250.343, 63.847, 7.307
253.984, 63.686, 7.589
257.678, 63.495, 7.963
261.426, 63.372, 9.084
265.229, 63.364, 10.208
269.087, 63.408, 11.016
273.001, 63.444, 11.694
276.972, 63.450, 12.165
281.000, 63.468, 12.536
285.088, 63.477, 12.846
289.234, 63.479, 13.255
293.441, 63.497, 13.855
297.710, 63.529, 14.300
302.040, 63.597, 14.604
306.433, 63.660, 15.025
310.890, 63.717, 15.231
315.412, 63.782, 15.305
320.000, 63.840, 15.494
324.655, 63.898, 15.596
329.377, 63.927, 15.737
334.168, 63.993, 15.801
339.028, 64.045, 15.772
343.959, 64.098, 15.771
348.962, 64.137, 15.688
354.038, 64.181, 15.466
359.188, 64.207, 15.254
364.412, 64.226, 14.972
369.713, 64.223, 14.710
375.090, 64.197, 14.516
380.546, 64.160, 14.358
386.081, 64.121, 14.364
391.697, 64.078, 14.422
397.395, 64.033, 14.551
403.175, 63.991, 14.948
409.039, 63.957, 15.321
414.989, 63.949, 15.729
421.025, 63.947, 16.171
427.149, 63.961, 16.628
433.362, 63.978, 17.028
439.665, 64.008, 17.443
446.060, 64.040, 17.702
452.548, 64.072, 17.872
459.131, 64.100, 17.994
465.809, 64.106, 18.122
472.584, 64.097, 18.320
479.458, 64.074, 18.633
486.432, 64.070, 19.244
493.507, 64.106, 19.787
500.686, 64.158, 20.210
507.968, 64.195, 20.351
515.357, 64.211, 20.540
522.853, 64.205, 20.939
530.458, 64.214, 21.489
538.174, 64.247, 22.019
546.002, 64.273, 22.392
553.943, 64.273, 22.885
562.001, 64.291, 23.808
570.175, 64.358, 24.699
578.469, 64.444, 25.418
586.883, 64.568, 25.988
595.419, 64.692, 26.322
604.080, 64.794, 26.784
612.866, 64.910, 27.156
621.780, 65.020, 27.320
630.824, 65.135, 27.602
640.000, 65.235, 27.750
649.309, 65.339, 27.920
658.753, 65.455, 27.959
668.335, 65.533, 27.952
678.056, 65.590, 28.194
687.919, 65.693, 28.623
697.925, 65.815, 28.838
708.076, 65.934, 28.894
718.376, 66.030, 28.981
728.825, 66.150, 29.164
739.426, 66.282, 29.015
750.181, 66.366, 28.871
761.093, 66.451, 29.214
772.163, 66.607, 29.414
783.394, 66.755, 29.266
794.789, 66.895, 29.087
806.349, 67.010, 28.744
818.078, 67.126, 28.573
829.977, 67.265, 27.861
842.050, 67.331, 27.331
854.297, 67.397, 26.892
866.724, 67.436, 26.428
879.330, 67.447, 26.329
892.120, 67.521, 26.481
905.097, 67.578, 26.247
918.262, 67.595, 26.469
931.618, 67.711, 27.137
945.169, 67.883, 27.154
958.917, 68.035, 27.126
972.864, 68.218, 26.864
987.015, 68.304, 26.276
1001.371, 68.405, 25.998
1015.937, 68.514, 24.959
1030.714, 68.605, 24.670
1045.706, 68.741, 24.865
1060.916, 68.910, 24.158
1076.347, 68.982, 23.567
1092.003, 69.137, 23.237
1107.887, 69.253, 22.382
1124.001, 69.382, 21.856
1140.350, 69.594, 20.806
1156.937, 69.687, 19.043
1173.765, 69.687, 17.509
1190.838, 69.623, 16.295
1208.159, 69.553, 15.912
1225.732, 69.605, 15.513
1243.561, 69.614, 14.167
1261.649, 69.457, 13.692
1280.000, 69.313, 14.096
1298.618, 69.394, 14.627
1317.507, 69.548, 14.762
1336.670, 69.634, 14.107
1356.113, 69.697, 14.384
1375.838, 69.932, 14.026
1395.850, 70.041, 12.716
1416.153, 70.131, 11.901
1436.751, 70.214, 10.515
1457.649, 70.141, 9.768
1478.851, 70.166, 9.373
1500.362, 70.240, 8.839
1522.185, 70.220, 8.195
1544.326, 70.355, 8.378
1566.789, 70.482, 7.676
1589.578, 70.630, 6.848
1612.699, 70.789, 5.605
1636.156, 70.983, 3.944
1659.955, 71.052, 1.457
1684.099, 71.003, -0.788
1708.595, 70.926, -2.237
1733.447, 71.043, -4.106
1758.661, 70.874, -7.816
1784.241, 70.581, -8.743
1810.193, 70.524, -10.986
1836.523, 70.148, -13.794
1863.236, 69.751, -15.208
1890.338, 69.177, -16.489
1917.833, 68.587, -15.149
1945.729, 68.335, -13.529
1974.030, 68.080, -12.415
2002.743, 67.824, -10.771
2031.873, 67.705, -8.613
2061.428, 67.801, -7.020
2091.412, 67.844, -6.704
2121.832, 67.755, -6.468
2152.695, 67.629, -4.788
2184.007, 67.861, -3.682
2215.774, 67.839, -4.698
2248.003, 67.611, -3.764
2280.701, 67.701, -2.218
2313.874, 67.657, -2.601
2347.530, 67.400, -0.695
2381.676, 67.587, 2.401
2416.318, 67.923, 2.780
2451.464, 67.919, 2.900
2487.122, 68.012, 5.447
2523.298, 68.520, 6.425
2560.000, 68.730, 5.632
2597.236, 68.914, 5.867
2635.014, 69.188, 6.169
2673.341, 69.473, 5.181
2712.226, 69.608, 5.209
2751.676, 69.960, 5.160
2791.700, 70.243, 4.085
2832.306, 70.514, 3.210
2873.503, 70.868, 1.831
2915.299, 71.178, 0.294
2957.703, 71.591, -2.271
3000.724, 71.843, -6.279
3044.370, 71.879, -10.660
3088.652, 71.696, -14.601
3133.577, 71.478, -17.453
3179.156, 71.224, -20.179
3225.398, 70.972, -22.818
3272.312, 70.617, -25.740
3319.909, 70.041, -28.294
3368.198, 69.288, -28.887
3417.190, 68.572, -28.129
3466.894, 67.921, -25.496
3517.321, 67.498, -21.921
3568.482, 67.315, -17.704
3620.387, 67.354, -12.766
3673.046, 67.751, -7.652
3726.472, 68.622, -4.504
3780.675, 69.494, -5.049
3835.666, 70.275, -7.244
3891.457, 70.870, -12.080
3948.060, 70.897, -17.796
4005.486, 70.544, -20.686
4063.747, 70.508, -21.529
4122.855, 70.520, -23.388
4182.824, 70.578, -26.130
4243.664, 70.431, -29.412
4305.390, 70.287, -31.830
4368.013, 70.041, -34.764
4431.547, 69.482, -37.656
4496.005, 68.946, -37.943
4561.401, 68.635, -38.117
4627.749, 68.293, -38.657
4695.061, 67.808, -37.128
4763.352, 67.674, -34.572
4832.637, 67.874, -34.021
4902.929, 67.732, -35.707
4974.244, 67.241, -35.657
5046.596, 66.666, -33.780
5120.000, 66.495, -29.033
5194.472, 66.675, -25.743
5270.027, 67.123, -21.826
5346.682, 67.840, -20.037
5424.451, 68.514, -19.704
5503.352, 69.167, -20.170
5583.399, 70.084, -21.751
5664.612, 71.003, -26.228
5747.006, 71.792, -33.855
5830.598, 72.208, -44.716
5915.406, 71.697, -57.383
6001.447, 70.404, -64.931
6088.740, 69.127, -68.280
6177.303, 68.085, -68.797
6267.154, 67.267, -70.070
6358.312, 66.156, -69.814
6450.796, 65.243, -65.286
6544.625, 65.104, -60.066
6639.818, 65.411, -58.182
6736.397, 65.626, -59.360
6834.380, 65.540, -61.793
6933.789, 65.211, -63.683
7034.643, 64.869, -64.411
7136.964, 64.589, -65.116
7240.773, 64.309, -65.739
7346.093, 64.020, -66.089
7452.944, 63.824, -65.983
7561.350, 63.723, -66.553
7671.332, 63.553, -67.239
7782.915, 63.442, -66.058
7896.120, 64.045, -64.626
8010.971, 65.205, -67.751
8127.493, 66.328, -77.809
8245.711, 66.806, -94.036
8365.647, 66.303, -112.982
8487.328, 65.017, -131.445
8610.779, 63.266, -148.789
8736.026, 61.361, -169.062
8863.095, 58.996, 167.660
8992.011, 56.769, 133.659
9122.803, 53.600, 85.541
9255.497, 48.669, 39.617
9390.121, 42.256, -16.913
9526.704, 41.457, -166.170
9665.273, 48.968, 127.213
9805.857, 52.829, 103.727
9948.487, 55.830, 90.496
10093.191, 58.294, 75.247
10240.000, 59.264, 56.325
10388.944, 58.715, 44.467
10540.055, 58.081, 42.462
10693.363, 58.166, 45.780
10848.902, 59.254, 49.022
11006.703, 60.567, 46.990
11166.799, 61.516, 42.533
11329.224, 62.097, 37.932
11494.012, 62.770, 35.972
11661.195, 63.923, 31.595
11830.812, 64.833, 23.060
12002.895, 65.167, 12.507
12177.480, 65.088, 2.795
12354.606, 64.816, -6.999
12534.309, 64.129, -17.935
12716.624, 62.681, -27.735
12901.592, 60.692, -31.365
13089.250, 59.066, -32.303
13279.637, 57.387, -32.622
13472.794, 55.361, -37.065
13668.760, 50.405, -18.034
13867.577, 51.808, 40.641
14069.285, 56.521, 49.543
14273.928, 59.096, 41.500
14481.547, 60.477, 30.816
14692.186, 60.786, 21.447
14905.889, 60.937, 14.379
15122.700, 60.539, 5.293
15342.664, 59.255, 0.047
15565.829, 57.744, -0.589
15792.239, 55.706, 5.981
16021.942, 54.991, 26.163
16254.986, 56.959, 40.536
16491.422, 58.875, 43.129
16731.295, 60.316, 44.746
16974.656, 63.025, 45.555
17221.559, 65.483, 30.987
17472.053, 65.960, 8.707
17726.189, 64.946, -10.344
17984.021, 62.849, -25.373
18245.605, 59.407, -29.425
18510.994, 56.307, -16.007
18780.242, 55.705, -5.649
19053.408, 53.578, 8.254
19330.547, 57.370, 52.979
19611.715, 62.385, 47.911
19896.975, 64.051, 27.819
