* Measurement data measured by REW V5.19
* Source: ASIO MOTU M Series, In 1
* Format: 1M Log Swept Sine, 1 sweep at -3.0 dBFS  With no timing reference
* Dated: 15 Feb, 2021 4:17:20 PM
* REW Settings:
*  C-weighting compensation: Off
*  Target level: 75.0 dB
* Note: ; 
* Measurement: Feb 15 16:17:20
* Smoothing: 1/48 octave
* Frequency Step: 1/48 octave
* Start Frequency: 10.1 Hz
*
* Freq(Hz), SPL(dB), Phase(degrees)
10.145, 60.574, 110.802
10.293, 60.651, 109.788
10.443, 60.730, 108.428
10.595, 60.845, 106.647
10.749, 60.958, 104.800
10.905, 61.032, 103.414
11.064, 61.089, 102.205
11.225, 61.155, 100.859
11.388, 61.223, 99.472
11.554, 61.286, 98.166
11.722, 61.345, 96.920
11.892, 61.403, 95.709
12.065, 61.459, 94.531
12.241, 61.514, 93.349
12.419, 61.568, 92.185
12.599, 61.619, 91.089
12.782, 61.669, 90.040
12.968, 61.721, 89.015
13.157, 61.777, 88.024
13.348, 61.838, 87.081
13.543, 61.906, 86.138
13.740, 61.981, 85.185
13.939, 62.061, 84.189
14.142, 62.143, 83.147
14.348, 62.223, 82.043
14.557, 62.295, 80.895
14.768, 62.357, 79.713
14.983, 62.406, 78.545
15.201, 62.445, 77.418
15.422, 62.475, 76.358
15.646, 62.504, 75.388
15.874, 62.535, 74.495
16.105, 62.573, 73.667
16.339, 62.622, 72.859
16.577, 62.678, 72.043
16.818, 62.738, 71.199
17.063, 62.798, 70.321
17.311, 62.853, 69.443
17.563, 62.903, 68.591
17.818, 62.953, 67.798
18.077, 63.009, 67.076
18.340, 63.080, 66.381
18.607, 63.168, 65.644
18.877, 63.271, 64.785
19.152, 63.375, 63.725
19.431, 63.459, 62.450
19.713, 63.503, 61.041
20.000, 63.495, 59.650
20.291, 63.438, 58.470
20.586, 63.352, 57.678
20.885, 63.274, 57.357
21.189, 63.251, 57.404
21.497, 63.308, 57.508
21.810, 63.433, 57.307
22.127, 63.580, 56.573
22.449, 63.690, 55.332
22.776, 63.724, 53.847
23.107, 63.677, 52.504
23.443, 63.583, 51.621
23.784, 63.506, 51.261
24.130, 63.497, 51.165
24.481, 63.562, 50.901
24.837, 63.652, 50.170
25.198, 63.704, 49.021
25.565, 63.685, 47.803
25.937, 63.615, 46.914
26.314, 63.550, 46.502
26.697, 63.548, 46.350
27.085, 63.612, 46.039
27.479, 63.695, 45.309
27.879, 63.741, 44.262
28.284, 63.731, 43.226
28.696, 63.692, 42.450
29.113, 63.663, 41.928
29.537, 63.658, 41.475
29.966, 63.664, 40.957
30.402, 63.663, 40.398
30.844, 63.654, 39.876
31.293, 63.643, 39.397
31.748, 63.628, 38.931
32.210, 63.604, 38.531
32.678, 63.583, 38.281
33.154, 63.588, 38.108
33.636, 63.614, 37.788
34.125, 63.620, 37.281
34.621, 63.584, 36.907
35.125, 63.559, 36.966
35.636, 63.613, 37.172
36.154, 63.728, 36.877
36.680, 63.791, 36.004
37.214, 63.748, 35.274
37.755, 63.696, 35.284
38.304, 63.758, 35.593
38.861, 63.900, 35.213
39.427, 63.976, 34.071
40.000, 63.929, 32.964
40.582, 63.844, 32.424
41.172, 63.793, 32.161
41.771, 63.756, 31.877
42.379, 63.717, 31.708
42.995, 63.707, 31.685
43.620, 63.724, 31.558
44.255, 63.732, 31.398
44.898, 63.749, 31.430
45.552, 63.803, 31.460
46.214, 63.846, 31.381
46.886, 63.873, 31.656
47.568, 63.987, 32.299
48.260, 64.205, 32.439
48.962, 64.394, 31.759
49.674, 64.493, 30.904
50.397, 64.562, 30.213
51.130, 64.627, 29.454
51.874, 64.659, 28.582
52.628, 64.653, 27.834
53.394, 64.653, 27.342
54.170, 64.695, 26.818
54.958, 64.727, 25.929
55.758, 64.684, 25.122
56.569, 64.643, 24.896
57.391, 64.678, 24.781
58.226, 64.742, 24.345
59.073, 64.786, 23.592
59.932, 64.759, 22.817
60.804, 64.720, 22.547
61.688, 64.743, 22.176
62.586, 64.702, 21.515
63.496, 64.642, 21.502
64.420, 64.676, 21.345
65.357, 64.657, 20.782
66.307, 64.619, 20.631
67.272, 64.632, 20.422
68.250, 64.642, 20.043
69.243, 64.642, 19.604
70.250, 64.622, 19.269
71.272, 64.619, 19.095
72.309, 64.622, 18.770
73.360, 64.575, 18.548
74.427, 64.571, 18.765
75.510, 64.634, 18.346
76.608, 64.578, 17.610
77.723, 64.515, 17.521
78.853, 64.528, 17.412
80.000, 64.547, 16.969
81.164, 64.533, 16.649
82.344, 64.542, 16.376
83.542, 64.514, 16.192
84.757, 64.517, 16.176
85.990, 64.517, 16.063
87.241, 64.531, 15.803
88.510, 64.492, 15.417
89.797, 64.443, 15.383
91.103, 64.442, 15.461
92.428, 64.445, 15.236
93.773, 64.426, 15.110
95.137, 64.422, 14.967
96.520, 64.416, 14.822
97.924, 64.427, 14.783
99.349, 64.461, 14.555
100.794, 64.431, 14.356
102.260, 64.417, 14.442
103.747, 64.393, 14.453
105.256, 64.394, 14.474
106.787, 64.407, 14.134
108.340, 64.387, 13.808
109.916, 64.391, 13.759
111.515, 64.418, 13.663
113.137, 64.405, 13.644
114.783, 64.406, 13.762
116.452, 64.396, 13.704
118.146, 64.376, 13.630
119.865, 64.342, 13.676
121.608, 64.342, 13.765
123.377, 64.335, 13.723
125.171, 64.338, 13.624
126.992, 64.363, 13.368
128.839, 64.367, 13.081
130.713, 64.376, 13.076
132.615, 64.380, 13.155
134.543, 64.380, 13.181
136.500, 64.367, 13.190
138.486, 64.356, 13.163
140.500, 64.362, 13.080
142.544, 64.362, 13.006
144.617, 64.366, 13.047
146.721, 64.371, 13.124
148.855, 64.363, 13.229
151.020, 64.365, 13.090
153.217, 64.369, 13.009
155.445, 64.388, 12.829
157.706, 64.368, 12.779
160.000, 64.342, 12.927
162.327, 64.378, 12.936
164.688, 64.449, 12.633
167.084, 64.487, 12.629
169.514, 64.524, 12.869
171.980, 64.494, 12.792
174.481, 64.436, 12.934
177.019, 64.420, 13.136
179.594, 64.442, 13.217
182.206, 64.440, 13.109
184.856, 64.444, 13.175
187.545, 64.458, 13.134
190.273, 64.467, 13.169
193.041, 64.478, 13.191
195.849, 64.476, 13.242
198.697, 64.492, 13.302
201.587, 64.511, 13.329
204.520, 64.513, 13.419
207.494, 64.517, 13.430
210.512, 64.522, 13.458
213.574, 64.547, 13.572
216.681, 64.562, 13.642
219.833, 64.587, 13.705
223.030, 64.624, 13.687
226.274, 64.639, 13.689
229.565, 64.649, 13.603
232.905, 64.660, 13.622
236.292, 64.684, 13.682
239.729, 64.698, 13.526
243.216, 64.718, 13.422
246.754, 64.714, 13.457
250.343, 64.711, 13.633
253.984, 64.716, 13.676
257.678, 64.718, 13.784
261.426, 64.731, 13.964
265.229, 64.762, 14.207
269.087, 64.805, 14.278
273.001, 64.838, 14.312
276.972, 64.880, 14.415
281.000, 64.936, 14.544
285.088, 64.983, 14.547
289.234, 65.049, 14.485
293.441, 65.097, 14.532
297.710, 65.144, 14.236
302.040, 65.221, 14.119
306.433, 65.296, 13.872
310.890, 65.363, 13.447
315.412, 65.440, 12.889
320.000, 65.489, 12.117
324.655, 65.522, 11.351
329.377, 65.537, 10.289
334.168, 65.499, 8.955
339.028, 65.389, 7.608
343.959, 65.183, 6.343
348.962, 64.862, 5.729
354.038, 64.548, 6.078
359.188, 64.281, 7.417
364.412, 64.125, 9.033
369.713, 64.081, 10.628
375.090, 64.102, 11.975
380.546, 64.168, 12.983
386.081, 64.240, 13.698
391.697, 64.292, 14.233
397.395, 64.346, 14.680
403.175, 64.380, 15.035
409.039, 64.418, 15.407
414.989, 64.450, 15.714
421.025, 64.490, 16.072
427.149, 64.526, 16.377
433.362, 64.555, 16.618
439.665, 64.586, 16.978
446.060, 64.601, 17.375
452.548, 64.649, 17.785
459.131, 64.697, 18.070
465.809, 64.756, 18.426
472.584, 64.798, 18.741
479.458, 64.851, 19.003
486.432, 64.916, 19.290
493.507, 64.975, 19.474
500.686, 65.028, 19.661
507.968, 65.084, 19.830
515.357, 65.172, 19.990
522.853, 65.243, 19.953
530.458, 65.304, 19.951
538.174, 65.362, 19.914
546.002, 65.406, 19.602
553.943, 65.396, 19.325
562.001, 65.381, 19.307
570.175, 65.359, 19.439
578.469, 65.337, 19.830
586.883, 65.363, 20.394
595.419, 65.368, 20.734
604.080, 65.427, 21.305
612.866, 65.473, 21.624
621.780, 65.531, 21.885
630.824, 65.616, 22.327
640.000, 65.700, 22.580
649.309, 65.779, 22.788
658.753, 65.881, 22.993
668.335, 65.978, 22.970
678.056, 66.077, 22.906
687.919, 66.175, 22.573
697.925, 66.209, 21.933
708.076, 66.167, 21.337
718.376, 66.052, 21.532
728.825, 66.017, 22.559
739.426, 66.092, 23.244
750.181, 66.183, 23.673
761.093, 66.282, 24.163
772.163, 66.404, 24.424
783.394, 66.511, 24.374
794.789, 66.600, 24.240
806.349, 66.651, 24.102
818.078, 66.697, 24.189
829.977, 66.751, 24.281
842.050, 66.821, 24.429
854.297, 66.908, 24.453
866.724, 66.958, 24.628
879.330, 67.030, 24.759
892.120, 67.113, 24.876
905.097, 67.225, 25.096
918.262, 67.352, 25.059
931.618, 67.442, 24.986
945.169, 67.557, 24.856
958.917, 67.675, 24.528
972.864, 67.788, 24.008
987.015, 67.832, 23.325
1001.371, 67.869, 22.976
1015.937, 67.895, 22.531
1030.714, 67.888, 22.325
1045.706, 67.912, 22.235
1060.916, 67.932, 21.925
1076.347, 67.888, 22.159
1092.003, 67.947, 22.546
1107.887, 67.974, 22.568
1124.001, 68.015, 22.892
1140.350, 68.052, 23.310
1156.937, 68.132, 23.958
1173.765, 68.281, 24.383
1190.838, 68.416, 24.691
1208.159, 68.601, 24.731
1225.732, 68.770, 24.467
1243.561, 68.922, 24.417
1261.649, 69.143, 24.559
1280.000, 69.404, 23.709
1298.618, 69.579, 22.481
1317.507, 69.654, 21.188
1336.670, 69.763, 20.141
1356.113, 69.798, 18.772
1375.838, 69.789, 17.899
1395.850, 69.820, 17.067
1416.153, 69.806, 16.203
1436.751, 69.817, 15.665
1457.649, 69.826, 14.770
1478.851, 69.785, 14.057
1500.362, 69.720, 13.359
1522.185, 69.620, 13.450
1544.326, 69.726, 14.102
1566.789, 69.861, 12.952
1589.578, 69.808, 11.717
1612.699, 69.650, 11.452
1636.156, 69.689, 11.968
1659.955, 69.749, 11.127
1684.099, 69.621, 10.238
1708.595, 69.452, 10.646
1733.447, 69.440, 11.362
1758.661, 69.396, 11.711
1784.241, 69.425, 12.955
1810.193, 69.566, 13.677
1836.523, 69.683, 14.006
1863.236, 69.893, 14.485
1890.338, 70.078, 14.095
1917.833, 70.232, 14.131
1945.729, 70.500, 13.596
1974.030, 70.641, 12.367
2002.743, 70.750, 11.622
2031.873, 70.930, 10.318
2061.428, 70.968, 9.026
2091.412, 71.047, 7.807
2121.832, 71.014, 5.941
2152.695, 70.848, 6.052
2184.007, 71.108, 6.072
2215.774, 71.238, 3.752
2248.003, 71.113, 1.524
2280.701, 70.929, 1.036
2313.874, 70.892, -0.950
2347.530, 70.383, -2.122
2381.676, 70.009, 1.393
2416.318, 70.370, 3.455
2451.464, 70.618, 2.726
2487.122, 70.665, 1.367
2523.298, 70.499, 0.419
2560.000, 70.211, 1.835
2597.236, 70.444, 5.029
2635.014, 70.889, 5.405
2673.341, 71.303, 5.568
2712.226, 71.900, 2.979
2751.676, 72.025, -1.580
2791.700, 71.674, -4.498
2832.306, 71.419, -4.005
2873.503, 71.569, -3.973
2915.299, 71.553, -4.752
2957.703, 71.748, -4.857
3000.724, 71.967, -5.476
3044.370, 72.456, -8.020
3088.652, 72.529, -12.855
3133.577, 72.361, -16.651
3179.156, 72.044, -20.478
3225.398, 71.587, -22.360
3272.312, 71.313, -24.845
3319.909, 70.723, -26.923
3368.198, 70.221, -27.868
3417.190, 69.530, -29.003
3466.894, 68.748, -27.004
3517.321, 68.391, -24.553
3568.482, 67.948, -23.087
3620.387, 67.443, -20.206
3673.046, 67.057, -15.744
3726.472, 67.004, -11.158
3780.675, 66.933, -6.857
3835.666, 67.052, -0.935
3891.457, 67.622, 5.126
3948.060, 68.607, 9.330
4005.486, 69.635, 10.413
4063.747, 70.622, 10.289
4122.855, 71.618, 8.172
4182.824, 72.568, 4.303
4243.664, 73.241, -2.323
4305.390, 73.442, -9.456
4368.013, 73.348, -15.891
4431.547, 72.963, -21.685
4496.005, 72.348, -25.042
4561.401, 71.814, -26.536
4627.749, 71.330, -26.931
4695.061, 71.018, -26.430
4763.352, 70.781, -26.035
4832.637, 70.609, -24.765
4902.929, 70.608, -23.347
4974.244, 70.766, -22.213
5046.596, 71.009, -21.657
5120.000, 71.243, -21.873
5194.472, 71.484, -21.563
5270.027, 71.955, -20.929
5346.682, 72.720, -21.667
5424.451, 73.537, -25.173
5503.352, 74.209, -30.420
5583.399, 74.947, -37.695
5664.612, 75.209, -49.496
5747.006, 74.569, -61.563
5830.598, 73.143, -69.121
5915.406, 71.847, -70.149
6001.447, 71.085, -71.775
6088.740, 70.135, -73.823
6177.303, 68.862, -70.908
6267.154, 69.009, -65.430
6358.312, 69.724, -69.126
6450.796, 69.132, -77.312
6544.625, 67.733, -77.376
6639.818, 67.302, -73.697
6736.397, 67.539, -73.518
6834.380, 67.634, -76.785
6933.789, 67.471, -83.073
7034.643, 66.437, -89.840
7136.964, 64.883, -88.358
7240.773, 64.280, -85.056
7346.093, 64.291, -85.642
7452.944, 63.635, -89.876
7561.350, 62.444, -91.901
7671.332, 60.869, -85.337
7782.915, 61.680, -73.662
7896.120, 63.411, -74.806
8010.971, 64.676, -87.131
8127.493, 64.527, -104.902
8245.711, 63.360, -120.558
8365.647, 62.024, -134.044
8487.328, 60.609, -150.734
8610.779, 58.870, -167.298
8736.026, 57.566, 171.431
8863.095, 55.698, 148.420
8992.011, 55.581, 142.807
9122.803, 57.400, 122.114
9255.497, 58.021, 110.663
9390.121, 60.970, 104.127
9526.704, 63.663, 87.650
9665.273, 65.324, 67.738
9805.857, 66.029, 47.481
9948.487, 65.708, 30.946
10093.191, 65.263, 19.111
10240.000, 64.404, 7.837
10388.944, 62.966, 0.467
10540.055, 60.992, 1.270
10693.363, 60.030, 12.251
10848.902, 61.073, 20.610
11006.703, 62.193, 20.149
11166.799, 62.831, 17.569
11329.224, 63.529, 14.620
11494.012, 63.995, 9.202
11661.195, 64.244, 3.255
11830.812, 64.167, -4.006
12002.895, 63.648, -10.965
12177.480, 62.535, -16.105
12354.606, 61.345, -12.795
12534.309, 61.752, -10.682
12716.624, 61.825, -17.716
12901.592, 61.087, -26.474
13089.250, 59.392, -38.831
13279.637, 55.024, -41.573
13472.794, 52.185, 25.618
13668.760, 58.638, 53.056
13867.577, 61.994, 36.061
14069.285, 63.257, 17.071
14273.928, 63.415, -1.632
14481.547, 62.088, -20.620
14692.186, 59.193, -32.507
14905.889, 55.213, -38.769
15122.700, 48.812, -1.473
15342.664, 52.562, 69.499
15565.829, 57.130, 70.507
15792.239, 58.958, 63.211
16021.942, 60.712, 65.864
16254.986, 63.993, 64.871
16491.422, 66.553, 49.017
16731.295, 67.183, 27.288
16974.656, 66.545, 9.780
17221.559, 65.029, -4.348
17472.053, 62.501, -11.123
17726.189, 59.242, -2.878
17984.021, 58.676, 25.206
18245.605, 62.617, 39.297
18510.994, 65.683, 27.334
18780.242, 66.422, 3.888
19053.408, 64.890, -15.022
19330.547, 62.087, -20.838
19611.715, 59.674, -10.849
19896.975, 59.835, 2.144
