* Measurement data measured by REW V5.19
* Source: ASIO MOTU M Series, In 1
* Format: 1M Log Swept Sine, 1 sweep at -3.0 dBFS  With no timing reference
* Dated: 15 Feb, 2021 4:21:48 PM
* REW Settings:
*  C-weighting compensation: Off
*  Target level: 75.0 dB
* Note: ; 
* Measurement: Feb 15 16:21:48
* Smoothing: 1/48 octave
* Frequency Step: 1/48 octave
* Start Frequency: 10.1 Hz
*
* Freq(Hz), SPL(dB), Phase(degrees)
10.145, 56.956, 139.080
10.293, 57.061, 138.663
10.443, 57.173, 138.087
10.595, 57.372, 137.336
10.749, 57.602, 136.497
10.905, 57.831, 135.735
11.064, 58.071, 134.916
11.225, 58.329, 133.823
11.388, 58.599, 132.517
11.554, 58.858, 131.071
11.722, 59.108, 129.483
11.892, 59.339, 127.812
12.065, 59.552, 126.061
12.241, 59.747, 124.293
12.419, 59.925, 122.520
12.599, 60.086, 120.819
12.782, 60.235, 119.181
12.968, 60.376, 117.615
13.157, 60.512, 116.127
13.348, 60.646, 114.728
13.543, 60.779, 113.398
13.740, 60.913, 112.134
13.939, 61.051, 110.926
14.142, 61.192, 109.767
14.348, 61.339, 108.646
14.557, 61.491, 107.536
14.768, 61.650, 106.424
14.983, 61.813, 105.276
15.201, 61.976, 104.078
15.422, 62.137, 102.817
15.646, 62.288, 101.502
15.874, 62.428, 100.152
16.105, 62.556, 98.788
16.339, 62.674, 97.442
16.577, 62.787, 96.108
16.818, 62.898, 94.772
17.063, 63.008, 93.389
17.311, 63.113, 91.907
17.563, 63.203, 90.313
17.818, 63.267, 88.618
18.077, 63.293, 86.910
18.340, 63.279, 85.337
18.607, 63.240, 84.025
18.877, 63.199, 83.067
19.152, 63.191, 82.461
19.431, 63.250, 82.014
19.713, 63.382, 81.436
20.000, 63.564, 80.478
20.291, 63.757, 79.014
20.586, 63.918, 77.091
20.885, 64.016, 74.921
21.189, 64.046, 72.795
21.497, 64.029, 70.958
21.810, 64.004, 69.497
22.127, 64.003, 68.321
22.449, 64.041, 67.228
22.776, 64.103, 66.039
23.107, 64.164, 64.708
23.443, 64.204, 63.327
23.784, 64.222, 62.048
24.130, 64.234, 60.954
24.481, 64.259, 60.003
24.837, 64.305, 59.067
25.198, 64.358, 58.038
25.565, 64.401, 56.909
25.937, 64.423, 55.759
26.314, 64.426, 54.673
26.697, 64.419, 53.683
27.085, 64.408, 52.774
27.479, 64.397, 51.934
27.879, 64.388, 51.170
28.284, 64.392, 50.457
28.696, 64.413, 49.700
29.113, 64.440, 48.784
29.537, 64.448, 47.705
29.966, 64.417, 46.629
30.402, 64.359, 45.770
30.844, 64.308, 45.202
31.293, 64.290, 44.771
31.748, 64.302, 44.266
32.210, 64.312, 43.636
32.678, 64.307, 43.031
33.154, 64.301, 42.590
33.636, 64.325, 42.250
34.125, 64.382, 41.794
34.621, 64.447, 41.073
35.125, 64.486, 40.149
35.636, 64.491, 39.210
36.154, 64.477, 38.404
36.680, 64.468, 37.706
37.214, 64.470, 37.006
37.755, 64.471, 36.253
38.304, 64.464, 35.504
38.861, 64.455, 34.814
39.427, 64.450, 34.134
40.000, 64.440, 33.418
40.582, 64.412, 32.742
41.172, 64.374, 32.207
41.771, 64.335, 31.806
42.379, 64.296, 31.524
42.995, 64.263, 31.434
43.620, 64.265, 31.496
44.255, 64.312, 31.465
44.898, 64.381, 31.170
45.552, 64.449, 30.620
46.214, 64.503, 29.821
46.886, 64.521, 28.855
47.568, 64.502, 27.989
48.260, 64.488, 27.280
48.962, 64.481, 26.505
49.674, 64.446, 25.773
50.397, 64.416, 25.360
51.130, 64.435, 24.965
51.874, 64.449, 24.262
52.628, 64.408, 23.646
53.394, 64.374, 23.372
54.170, 64.376, 23.043
54.958, 64.363, 22.535
55.758, 64.331, 22.072
56.569, 64.295, 21.630
57.391, 64.248, 21.279
58.226, 64.229, 21.100
59.073, 64.242, 20.698
59.932, 64.210, 20.178
60.804, 64.170, 20.119
61.688, 64.205, 20.051
62.586, 64.222, 19.531
63.496, 64.174, 19.090
64.420, 64.117, 18.931
65.357, 64.085, 18.876
66.307, 64.077, 18.646
67.272, 64.053, 18.317
68.250, 64.049, 18.098
69.243, 64.061, 17.693
70.250, 64.051, 17.380
71.272, 64.068, 17.233
72.309, 64.087, 16.817
73.360, 64.025, 16.376
74.427, 63.952, 16.490
75.510, 63.955, 16.436
76.608, 63.930, 15.971
77.723, 63.893, 15.581
78.853, 63.872, 15.341
80.000, 63.896, 15.208
81.164, 63.935, 15.119
82.344, 63.991, 14.889
83.542, 63.955, 14.585
84.757, 63.916, 14.741
85.990, 63.874, 14.495
87.241, 63.791, 14.550
88.510, 63.802, 14.434
89.797, 63.774, 14.043
91.103, 63.780, 14.003
92.428, 63.802, 13.813
93.773, 63.798, 13.673
95.137, 63.780, 13.654
96.520, 63.760, 13.546
97.924, 63.729, 13.454
99.349, 63.702, 13.410
100.794, 63.719, 13.412
102.260, 63.723, 13.179
103.747, 63.719, 13.127
105.256, 63.718, 13.013
106.787, 63.711, 12.994
108.340, 63.712, 12.830
109.916, 63.707, 12.812
111.515, 63.720, 12.554
113.137, 63.681, 12.445
114.783, 63.684, 12.603
116.452, 63.696, 12.367
118.146, 63.653, 12.365
119.865, 63.655, 12.441
121.608, 63.668, 12.392
123.377, 63.685, 12.220
125.171, 63.681, 12.180
126.992, 63.727, 12.165
128.839, 63.717, 11.966
130.713, 63.712, 11.854
132.615, 63.674, 11.844
134.543, 63.674, 11.900
136.500, 63.695, 11.859
138.486, 63.720, 11.606
140.500, 63.695, 11.380
142.544, 63.667, 11.290
144.617, 63.638, 11.329
146.721, 63.666, 11.336
148.855, 63.642, 11.077
151.020, 63.600, 11.210
153.217, 63.577, 11.230
155.445, 63.557, 11.313
157.706, 63.550, 11.357
160.000, 63.549, 11.650
162.327, 63.547, 11.681
164.688, 63.523, 11.796
167.084, 63.545, 11.905
169.514, 63.547, 11.967
171.980, 63.538, 12.221
174.481, 63.558, 12.381
177.019, 63.565, 12.425
179.594, 63.599, 12.398
182.206, 63.589, 12.382
184.856, 63.616, 12.594
187.545, 63.650, 12.618
190.273, 63.685, 12.666
193.041, 63.725, 12.680
195.849, 63.747, 12.699
198.697, 63.762, 12.719
201.587, 63.792, 12.686
204.520, 63.821, 12.549
207.494, 63.840, 12.468
210.512, 63.871, 12.453
213.574, 63.910, 12.385
216.681, 63.947, 12.221
219.833, 63.977, 12.238
223.030, 63.993, 11.939
226.274, 64.026, 11.422
229.565, 64.048, 10.992
232.905, 64.071, 10.484
236.292, 64.068, 10.016
239.729, 64.041, 9.495
243.216, 63.987, 8.694
246.754, 63.899, 8.025
250.343, 63.758, 7.617
253.984, 63.575, 7.579
257.678, 63.388, 7.892
261.426, 63.231, 8.542
265.229, 63.143, 9.493
269.087, 63.097, 10.588
273.001, 63.107, 11.356
276.972, 63.119, 12.000
281.000, 63.136, 12.671
285.088, 63.133, 13.100
289.234, 63.140, 13.693
293.441, 63.160, 14.379
297.710, 63.211, 14.944
302.040, 63.264, 15.534
306.433, 63.339, 15.992
310.890, 63.416, 16.406
315.412, 63.476, 16.646
320.000, 63.556, 16.738
324.655, 63.615, 16.815
329.377, 63.655, 16.913
334.168, 63.721, 17.032
339.028, 63.779, 17.047
343.959, 63.841, 17.033
348.962, 63.893, 16.958
354.038, 63.941, 16.819
359.188, 63.982, 16.635
364.412, 64.016, 16.455
369.713, 64.023, 16.159
375.090, 64.012, 15.860
380.546, 63.987, 15.668
386.081, 63.942, 15.593
391.697, 63.894, 15.611
397.395, 63.848, 15.735
403.175, 63.800, 16.018
409.039, 63.763, 16.355
414.989, 63.740, 16.804
421.025, 63.729, 17.248
427.149, 63.736, 17.710
433.362, 63.752, 18.158
439.665, 63.769, 18.576
446.060, 63.802, 19.013
452.548, 63.851, 19.391
459.131, 63.892, 19.626
465.809, 63.916, 19.809
472.584, 63.928, 19.963
479.458, 63.922, 20.224
486.432, 63.915, 20.588
493.507, 63.935, 21.162
500.686, 63.971, 21.697
507.968, 64.033, 22.078
515.357, 64.084, 22.257
522.853, 64.087, 22.474
530.458, 64.086, 22.968
538.174, 64.114, 23.504
546.002, 64.164, 23.885
553.943, 64.171, 24.267
562.001, 64.179, 24.928
570.175, 64.232, 25.688
578.469, 64.320, 26.495
586.883, 64.430, 27.106
595.419, 64.540, 27.582
604.080, 64.646, 27.965
612.866, 64.756, 28.186
621.780, 64.840, 28.324
630.824, 64.941, 28.606
640.000, 65.046, 28.814
649.309, 65.140, 28.984
658.753, 65.212, 29.025
668.335, 65.300, 29.139
678.056, 65.353, 29.417
687.919, 65.432, 29.817
697.925, 65.534, 30.090
708.076, 65.632, 30.414
718.376, 65.718, 30.627
728.825, 65.843, 30.927
739.426, 65.967, 31.009
750.181, 66.043, 31.140
761.093, 66.142, 31.547
772.163, 66.309, 31.849
783.394, 66.487, 31.792
794.789, 66.625, 31.527
806.349, 66.736, 31.522
818.078, 66.889, 31.454
829.977, 67.037, 30.971
842.050, 67.134, 30.420
854.297, 67.191, 29.836
866.724, 67.191, 29.697
879.330, 67.235, 30.015
892.120, 67.341, 30.273
905.097, 67.448, 30.285
918.262, 67.543, 30.493
931.618, 67.683, 30.765
945.169, 67.864, 30.730
958.917, 68.024, 30.495
972.864, 68.199, 30.188
987.015, 68.350, 29.540
1001.371, 68.481, 29.033
1015.937, 68.602, 28.350
1030.714, 68.680, 27.608
1045.706, 68.746, 27.498
1060.916, 68.881, 27.088
1076.347, 68.920, 26.732
1092.003, 69.078, 26.842
1107.887, 69.250, 26.185
1124.001, 69.372, 25.515
1140.350, 69.559, 25.170
1156.937, 69.800, 23.791
1173.765, 69.899, 21.881
1190.838, 69.897, 20.382
1208.159, 69.883, 19.266
1225.732, 69.865, 18.401
1243.561, 69.901, 17.228
1261.649, 69.751, 15.546
1280.000, 69.515, 15.638
1298.618, 69.439, 16.371
1317.507, 69.467, 17.003
1336.670, 69.549, 17.017
1356.113, 69.533, 17.327
1375.838, 69.667, 18.364
1395.850, 69.935, 18.345
1416.153, 70.079, 17.599
1436.751, 70.258, 17.346
1457.649, 70.402, 16.319
1478.851, 70.467, 15.784
1500.362, 70.595, 15.376
1522.185, 70.684, 14.947
1544.326, 70.941, 15.064
1566.789, 71.199, 14.040
1589.578, 71.498, 12.671
1612.699, 71.731, 10.929
1636.156, 72.117, 8.255
1659.955, 72.211, 3.332
1684.099, 71.874, -0.201
1708.595, 71.526, -1.643
1733.447, 71.483, -2.239
1758.661, 71.391, -4.734
1784.241, 71.167, -5.824
1810.193, 71.107, -7.572
1836.523, 70.837, -10.161
1863.236, 70.463, -11.645
1890.338, 69.990, -12.558
1917.833, 69.485, -11.235
1945.729, 69.439, -9.628
1974.030, 69.365, -10.061
2002.743, 69.092, -9.925
2031.873, 68.904, -8.936
2061.428, 68.829, -7.404
2091.412, 68.914, -7.239
2121.832, 68.777, -8.044
2152.695, 68.497, -7.034
2184.007, 68.552, -5.638
2215.774, 68.454, -5.711
2248.003, 68.302, -4.382
2280.701, 68.404, -2.353
2313.874, 68.547, -2.938
2347.530, 68.363, -2.595
2381.676, 68.393, -0.280
2416.318, 68.614, -0.208
2451.464, 68.434, -0.121
2487.122, 68.452, 2.489
2523.298, 68.664, 4.436
2560.000, 68.940, 6.091
2597.236, 69.386, 7.472
2635.014, 69.951, 7.243
2673.341, 70.312, 5.295
2712.226, 70.491, 4.374
2751.676, 70.821, 3.746
2791.700, 71.092, 1.934
2832.306, 71.275, 0.672
2873.503, 71.538, -0.767
2915.299, 71.830, -2.185
2957.703, 72.193, -5.036
3000.724, 72.324, -8.449
3044.370, 72.456, -11.902
3088.652, 72.383, -15.967
3133.577, 72.252, -19.417
3179.156, 71.942, -22.823
3225.398, 71.650, -24.961
3272.312, 71.359, -27.981
3319.909, 70.820, -30.355
3368.198, 70.196, -31.252
3417.190, 69.577, -30.768
3466.894, 69.177, -29.471
3517.321, 68.857, -28.564
3568.482, 68.624, -26.935
3620.387, 68.436, -25.404
3673.046, 68.268, -23.764
3726.472, 68.058, -21.710
3780.675, 67.937, -18.021
3835.666, 68.306, -13.224
3891.457, 69.132, -10.971
3948.060, 69.871, -12.380
4005.486, 70.302, -14.979
4063.747, 70.707, -16.601
4122.855, 71.171, -20.213
4182.824, 71.350, -24.792
4243.664, 71.273, -30.255
4305.390, 71.032, -34.292
4368.013, 70.726, -37.636
4431.547, 70.152, -41.143
4496.005, 69.449, -41.984
4561.401, 69.006, -41.597
4627.749, 68.755, -42.496
4695.061, 68.180, -42.989
4763.352, 67.817, -40.653
4832.637, 67.725, -38.623
4902.929, 67.693, -38.583
4974.244, 67.305, -37.453
5046.596, 67.033, -35.577
5120.000, 66.816, -32.606
5194.472, 66.952, -29.725
5270.027, 67.216, -25.206
5346.682, 68.138, -22.104
5424.451, 69.030, -22.523
5503.352, 69.780, -25.106
5583.399, 70.552, -28.133
5664.612, 71.354, -33.586
5747.006, 72.017, -41.945
5830.598, 72.126, -54.145
5915.406, 71.262, -66.507
6001.447, 69.561, -72.295
6088.740, 68.175, -72.624
6177.303, 67.085, -71.131
6267.154, 66.401, -68.726
6358.312, 65.880, -66.511
6450.796, 65.616, -63.899
6544.625, 65.576, -62.643
6639.818, 65.536, -62.774
6736.397, 65.422, -63.605
6834.380, 65.164, -64.608
6933.789, 64.840, -65.158
7034.643, 64.509, -64.797
7136.964, 64.280, -64.407
7240.773, 64.015, -63.452
7346.093, 63.886, -61.170
7452.944, 64.141, -58.026
7561.350, 64.944, -56.414
7671.332, 65.997, -58.257
7782.915, 67.073, -63.662
7896.120, 68.126, -72.271
8010.971, 69.050, -86.037
8127.493, 69.230, -105.392
8245.711, 68.224, -125.796
8365.647, 66.396, -141.695
8487.328, 64.520, -153.745
8610.779, 62.968, -165.075
8736.026, 61.878, -179.137
8863.095, 60.993, 161.673
8992.011, 59.786, 135.859
9122.803, 57.735, 114.246
9255.497, 56.586, 99.056
9390.121, 56.044, 85.516
9526.704, 56.250, 77.211
9665.273, 56.888, 68.833
9805.857, 57.724, 63.486
9948.487, 59.137, 54.730
10093.191, 59.522, 42.479
10240.000, 59.224, 34.134
10388.944, 58.627, 30.745
10540.055, 58.401, 33.715
10693.363, 59.138, 35.838
10848.902, 59.807, 35.516
11006.703, 60.740, 35.317
11166.799, 61.651, 32.935
11329.224, 62.834, 30.569
11494.012, 64.100, 23.125
11661.195, 64.854, 12.463
11830.812, 65.138, -0.274
12002.895, 64.661, -14.696
12177.480, 63.096, -26.777
12354.606, 60.773, -28.930
12534.309, 59.647, -23.179
12716.624, 59.944, -26.112
12901.592, 58.906, -41.655
13089.250, 54.539, -46.342
13279.637, 49.997, 4.035
13472.794, 55.286, 39.712
13668.760, 59.786, 35.313
13867.577, 62.030, 15.599
14069.285, 62.417, -5.499
14273.928, 61.670, -25.315
14481.547, 59.750, -44.708
14692.186, 56.250, -60.743
14905.889, 50.836, -70.781
15122.700, 44.565, -116.338
15342.664, 49.275, 128.426
15565.829, 53.823, 80.106
15792.239, 54.724, 63.635
16021.942, 55.511, 65.157
16254.986, 56.740, 66.238
16491.422, 57.962, 70.233
16731.295, 60.467, 73.635
16974.656, 62.940, 67.145
17221.559, 64.574, 55.806
17472.053, 65.819, 42.483
17726.189, 66.222, 25.122
17984.021, 65.292, 8.721
18245.605, 63.343, 0.040
18510.994, 61.421, 1.005
18780.242, 60.332, 4.948
19053.408, 59.360, 14.503
19330.547, 61.042, 28.910
19611.715, 63.491, 26.563
19896.975, 64.860, 18.163
