* Measurement data measured by REW V5.19
* Source: ASIO MOTU M Series, In 1
* Format: 1M Log Swept Sine, 1 sweep at -3.0 dBFS  With no timing reference
* Dated: 19 Aug, 2021 6:20:26 PM
* REW Settings:
*  C-weighting compensation: Off
*  Target level: 75.0 dB
* Note: ; 
* Measurement: Aug 19 18:20:26
* Smoothing: 1/48 octave
* Frequency Step: 1/48 octave
* Start Frequency: 10.1 Hz
*
* Freq(Hz), SPL(dB), Phase(degrees)
10.145, 65.074, -93.602
10.293, 65.139, -94.284
10.443, 65.206, -95.205
10.595, 65.305, -96.421
10.749, 65.405, -97.690
10.905, 65.473, -98.663
11.064, 65.528, -99.524
11.225, 65.589, -100.474
11.388, 65.651, -101.448
11.554, 65.711, -102.352
11.722, 65.769, -103.204
11.892, 65.829, -104.026
12.065, 65.892, -104.823
12.241, 65.961, -105.642
12.419, 66.033, -106.475
12.599, 66.106, -107.314
12.782, 66.178, -108.173
12.968, 66.249, -109.079
13.157, 66.315, -110.004
13.348, 66.375, -110.934
13.543, 66.429, -111.855
13.740, 66.477, -112.764
13.939, 66.522, -113.639
14.142, 66.564, -114.480
14.348, 66.607, -115.283
14.557, 66.652, -116.068
14.768, 66.699, -116.841
14.983, 66.749, -117.619
15.201, 66.798, -118.408
15.422, 66.847, -119.212
15.646, 66.892, -120.023
15.874, 66.934, -120.828
16.105, 66.972, -121.619
16.339, 67.007, -122.384
16.577, 67.043, -123.128
16.818, 67.080, -123.856
17.063, 67.118, -124.586
17.311, 67.155, -125.328
17.563, 67.189, -126.081
17.818, 67.216, -126.835
18.077, 67.235, -127.560
18.340, 67.248, -128.221
18.607, 67.260, -128.801
18.877, 67.277, -129.293
19.152, 67.306, -129.720
19.431, 67.350, -130.134
19.713, 67.408, -130.591
20.000, 67.475, -131.128
20.291, 67.542, -131.757
20.586, 67.603, -132.461
20.885, 67.653, -133.202
21.189, 67.694, -133.939
21.497, 67.729, -134.649
21.810, 67.762, -135.331
22.127, 67.795, -136.002
22.449, 67.828, -136.677
22.776, 67.857, -137.360
23.107, 67.882, -138.038
23.443, 67.903, -138.694
23.784, 67.923, -139.318
24.130, 67.944, -139.917
24.481, 67.967, -140.505
24.837, 67.992, -141.100
25.198, 68.017, -141.707
25.565, 68.040, -142.322
25.937, 68.061, -142.938
26.314, 68.080, -143.554
26.697, 68.096, -144.168
27.085, 68.110, -144.779
27.479, 68.120, -145.376
27.879, 68.129, -145.948
28.284, 68.139, -146.501
28.696, 68.153, -147.053
29.113, 68.167, -147.627
29.537, 68.180, -148.231
29.966, 68.187, -148.852
30.402, 68.188, -149.469
30.844, 68.185, -150.074
31.293, 68.178, -150.671
31.748, 68.166, -151.264
32.210, 68.145, -151.839
32.678, 68.116, -152.356
33.154, 68.081, -152.778
33.636, 68.049, -153.086
34.125, 68.029, -153.299
34.621, 68.028, -153.464
35.125, 68.045, -153.652
35.636, 68.078, -153.926
36.154, 68.116, -154.323
36.680, 68.150, -154.832
37.214, 68.173, -155.411
37.755, 68.186, -156.015
38.304, 68.193, -156.635
38.861, 68.194, -157.287
39.427, 68.187, -157.974
40.000, 68.169, -158.676
40.582, 68.141, -159.377
41.172, 68.103, -160.070
41.771, 68.056, -160.749
42.379, 67.999, -161.399
42.995, 67.936, -162.017
43.620, 67.867, -162.621
44.255, 67.789, -163.229
44.898, 67.699, -163.840
45.552, 67.588, -164.438
46.214, 67.452, -164.976
46.886, 67.290, -165.382
47.568, 67.105, -165.581
48.260, 66.905, -165.511
48.962, 66.704, -165.139
49.674, 66.512, -164.449
50.397, 66.344, -163.409
51.130, 66.230, -162.052
51.874, 66.196, -160.558
52.628, 66.250, -159.211
53.394, 66.370, -158.364
54.170, 66.487, -158.192
54.958, 66.540, -158.445
55.758, 66.517, -158.780
56.569, 66.414, -158.928
57.391, 66.254, -158.458
58.226, 66.130, -157.242
59.073, 66.098, -155.768
59.932, 66.124, -154.401
60.804, 66.176, -153.145
61.688, 66.242, -151.882
62.586, 66.340, -150.499
63.496, 66.499, -149.123
64.420, 66.716, -147.985
65.357, 66.971, -147.223
66.307, 67.233, -146.898
67.272, 67.476, -146.917
68.250, 67.695, -147.182
69.243, 67.879, -147.592
70.250, 68.045, -148.014
71.272, 68.204, -148.574
72.309, 68.330, -149.224
73.360, 68.440, -149.816
74.427, 68.541, -150.414
75.510, 68.630, -151.004
76.608, 68.709, -151.575
77.723, 68.778, -152.135
78.853, 68.835, -152.694
80.000, 68.877, -153.214
81.164, 68.907, -153.670
82.344, 68.931, -154.000
83.542, 68.965, -154.223
84.757, 69.016, -154.429
85.990, 69.077, -154.673
87.241, 69.143, -154.995
88.510, 69.203, -155.398
89.797, 69.254, -155.805
91.103, 69.300, -156.237
92.428, 69.337, -156.649
93.773, 69.372, -157.050
95.137, 69.398, -157.445
96.520, 69.421, -157.800
97.924, 69.443, -158.141
99.349, 69.467, -158.453
100.794, 69.492, -158.784
102.260, 69.511, -159.072
103.747, 69.533, -159.342
105.256, 69.553, -159.606
106.787, 69.571, -159.886
108.340, 69.588, -160.109
109.916, 69.616, -160.328
111.515, 69.646, -160.570
113.137, 69.673, -160.820
114.783, 69.698, -161.105
116.452, 69.717, -161.417
118.146, 69.733, -161.719
119.865, 69.746, -161.988
121.608, 69.762, -162.083
123.377, 69.795, -162.265
125.171, 69.809, -162.437
126.992, 69.828, -162.650
128.839, 69.845, -162.889
130.713, 69.868, -163.138
132.615, 69.886, -163.356
134.543, 69.905, -163.516
136.500, 69.926, -163.683
138.486, 69.948, -163.882
140.500, 69.973, -164.102
142.544, 69.998, -164.331
144.617, 70.022, -164.560
146.721, 70.042, -164.793
148.855, 70.060, -165.043
151.020, 70.078, -165.281
153.217, 70.096, -165.516
155.445, 70.110, -165.754
157.706, 70.122, -165.977
160.000, 70.138, -166.181
162.327, 70.155, -166.376
164.688, 70.172, -166.603
167.084, 70.174, -166.796
169.514, 70.185, -166.910
171.980, 70.195, -167.110
174.481, 70.204, -167.330
177.019, 70.226, -167.561
179.594, 70.240, -167.802
182.206, 70.254, -167.867
184.856, 70.265, -168.000
187.545, 70.282, -168.152
190.273, 70.305, -168.298
193.041, 70.330, -168.465
195.849, 70.350, -168.675
198.697, 70.369, -168.906
201.587, 70.385, -169.103
204.520, 70.399, -169.285
207.494, 70.414, -169.481
210.512, 70.430, -169.652
213.574, 70.445, -169.874
216.681, 70.460, -170.105
219.833, 70.480, -170.303
223.030, 70.499, -170.515
226.274, 70.515, -170.732
229.565, 70.525, -171.035
232.905, 70.510, -171.281
236.292, 70.518, -171.362
239.729, 70.533, -171.613
243.216, 70.546, -171.766
246.754, 70.577, -171.927
250.343, 70.582, -172.152
253.984, 70.590, -172.412
257.678, 70.590, -172.600
261.426, 70.597, -172.746
265.229, 70.619, -172.906
269.087, 70.638, -173.115
273.001, 70.643, -173.344
276.972, 70.655, -173.521
281.000, 70.675, -173.717
285.088, 70.688, -173.948
289.234, 70.692, -174.190
293.441, 70.692, -174.375
297.710, 70.709, -174.525
302.040, 70.724, -174.749
306.433, 70.742, -174.936
310.890, 70.754, -175.176
315.412, 70.768, -175.450
320.000, 70.781, -175.717
324.655, 70.793, -176.019
329.377, 70.790, -176.366
334.168, 70.774, -176.616
339.028, 70.773, -176.723
343.959, 70.786, -176.901
348.962, 70.794, -177.154
354.038, 70.792, -177.425
359.188, 70.793, -177.567
364.412, 70.813, -177.741
369.713, 70.831, -178.075
375.090, 70.822, -178.419
380.546, 70.815, -178.571
386.081, 70.831, -178.803
391.697, 70.842, -179.125
397.395, 70.829, -179.501
403.175, 70.822, -179.608
409.039, 70.830, -179.918
414.989, 70.823, 179.789
421.025, 70.812, 179.575
427.149, 70.816, 179.404
433.362, 70.831, 179.149
439.665, 70.823, 178.751
446.060, 70.818, 178.583
452.548, 70.822, 178.212
459.131, 70.800, 178.019
465.809, 70.816, 177.754
472.584, 70.811, 177.485
479.458, 70.830, 177.199
486.432, 70.835, 176.688
493.507, 70.786, 176.231
500.686, 70.763, 176.230
507.968, 70.788, 175.897
515.357, 70.765, 175.508
522.853, 70.767, 175.177
530.458, 70.746, 174.741
538.174, 70.723, 174.490
546.002, 70.709, 174.110
553.943, 70.698, 173.883
562.001, 70.690, 173.298
570.175, 70.634, 172.980
578.469, 70.619, 172.821
586.883, 70.623, 172.384
595.419, 70.581, 171.948
604.080, 70.566, 171.567
612.866, 70.523, 171.106
621.780, 70.478, 170.782
630.824, 70.455, 170.374
640.000, 70.375, 169.944
649.309, 70.352, 169.936
658.753, 70.330, 169.446
668.335, 70.284, 169.102
678.056, 70.234, 168.719
687.919, 70.188, 168.594
697.925, 70.183, 168.216
708.076, 70.153, 167.725
718.376, 70.105, 167.186
728.825, 70.036, 166.797
739.426, 69.995, 166.443
750.181, 69.964, 166.002
761.093, 69.918, 165.244
772.163, 69.812, 164.571
783.394, 69.678, 164.302
794.789, 69.647, 164.118
806.349, 69.563, 163.463
818.078, 69.461, 163.116
829.977, 69.394, 162.941
842.050, 69.349, 162.187
854.297, 69.224, 161.434
866.724, 69.091, 161.013
879.330, 68.978, 160.298
892.120, 68.776, 159.745
905.097, 68.602, 159.715
918.262, 68.478, 159.460
931.618, 68.306, 159.158
945.169, 68.135, 159.006
958.917, 67.988, 158.818
972.864, 67.781, 158.458
987.015, 67.534, 158.709
1001.371, 67.375, 158.939
1015.937, 67.175, 159.436
1030.714, 67.070, 159.781
1045.706, 66.929, 159.547
1060.916, 66.717, 159.843
1076.347, 66.564, 159.763
1092.003, 66.283, 159.898
1107.887, 66.061, 160.717
1124.001, 65.873, 161.428
1140.350, 65.692, 161.941
1156.937, 65.502, 162.659
1173.765, 65.305, 163.388
1190.838, 65.122, 164.048
1208.159, 64.881, 164.824
1225.732, 64.683, 166.008
1243.561, 64.459, 166.992
1261.649, 64.220, 168.640
1280.000, 64.143, 170.413
1298.618, 64.009, 171.200
1317.507, 63.825, 172.688
1336.670, 63.659, 174.147
1356.113, 63.537, 175.728
1375.838, 63.383, 177.353
1395.850, 63.245, 179.000
1416.153, 63.133, -178.994
1436.751, 63.016, -177.109
1457.649, 62.901, -175.011
1478.851, 62.883, -172.586
1500.362, 62.847, -170.851
1522.185, 62.733, -168.552
1544.326, 62.723, -165.641
1566.789, 62.807, -162.782
1589.578, 62.934, -160.250
1612.699, 63.180, -157.964
1636.156, 63.352, -156.643
1659.955, 63.450, -155.003
1684.099, 63.598, -152.837
1708.595, 63.845, -151.160
1733.447, 64.097, -149.777
1758.661, 64.351, -148.950
1784.241, 64.504, -148.304
1810.193, 64.718, -147.291
1836.523, 64.928, -147.214
1863.236, 64.999, -146.914
1890.338, 65.123, -146.545
1917.833, 65.143, -146.404
1945.729, 65.111, -145.540
1974.030, 65.155, -144.759
2002.743, 65.110, -143.951
2031.873, 65.069, -142.501
2061.428, 65.043, -141.066
2091.412, 64.942, -139.078
2121.832, 64.935, -136.312
2152.695, 64.990, -133.124
2184.007, 65.175, -129.794
2215.774, 65.433, -126.548
2248.003, 65.798, -123.387
2280.701, 66.214, -120.346
2313.874, 66.744, -117.506
2347.530, 67.386, -115.355
2381.676, 68.070, -114.092
2416.318, 68.715, -113.414
2451.464, 69.427, -113.195
2487.122, 70.068, -114.072
2523.298, 70.652, -115.226
2560.000, 71.203, -116.775
2597.236, 71.666, -118.884
2635.014, 72.053, -121.130
2673.341, 72.343, -123.265
2712.226, 72.600, -125.386
2751.676, 72.810, -127.459
2791.700, 72.956, -129.446
2832.306, 73.054, -131.383
2873.503, 73.066, -132.852
2915.299, 73.078, -133.562
2957.703, 73.162, -133.829
3000.724, 73.326, -134.051
3044.370, 73.526, -134.530
3088.652, 73.761, -135.104
3133.577, 74.024, -136.349
3179.156, 74.182, -138.050
3225.398, 74.262, -139.211
3272.312, 74.370, -140.158
3319.909, 74.451, -140.899
3368.198, 74.590, -141.147
3417.190, 74.853, -141.521
3466.894, 75.135, -142.654
3517.321, 75.408, -143.993
3568.482, 75.707, -145.753
3620.387, 75.956, -148.287
3673.046, 76.118, -150.964
3726.472, 76.239, -153.868
3780.675, 76.247, -157.027
3835.666, 76.152, -159.798
3891.457, 76.027, -162.103
3948.060, 75.883, -164.144
4005.486, 75.737, -165.996
4063.747, 75.554, -167.754
4122.855, 75.355, -169.210
4182.824, 75.137, -170.381
4243.664, 74.914, -171.233
4305.390, 74.714, -171.582
4368.013, 74.600, -171.967
4431.547, 74.462, -172.702
4496.005, 74.290, -173.195
4561.401, 74.100, -173.525
4627.749, 73.900, -173.348
4695.061, 73.755, -172.802
4763.352, 73.637, -172.048
4832.637, 73.610, -171.014
4902.929, 73.621, -170.031
4974.244, 73.732, -168.905
5046.596, 73.927, -167.999
5120.000, 74.234, -167.557
5194.472, 74.592, -167.875
5270.027, 75.010, -169.155
5346.682, 75.359, -171.925
5424.451, 75.524, -175.717
5503.352, 75.401, -179.587
5583.399, 75.078, 177.699
5664.612, 74.693, 176.692
5747.006, 74.425, 177.050
5830.598, 74.365, 178.061
5915.406, 74.545, 178.796
6001.447, 74.921, 178.300
6088.740, 75.318, 175.813
6177.303, 75.589, 171.502
6267.154, 75.564, 166.190
6358.312, 75.256, 161.059
6450.796, 74.752, 156.769
6544.625, 74.098, 153.400
6639.818, 73.347, 151.136
6736.397, 72.526, 150.255
6834.380, 71.712, 150.835
6933.789, 70.973, 152.924
7034.643, 70.398, 156.459
7136.964, 70.107, 161.122
7240.773, 70.223, 165.994
7346.093, 70.754, 169.583
7452.944, 71.536, 170.584
7561.350, 72.348, 168.766
7671.332, 73.102, 164.492
7782.915, 73.724, 157.455
7896.120, 74.027, 147.382
8010.971, 73.753, 134.860
8127.493, 72.732, 121.936
8245.711, 71.001, 110.119
8365.647, 68.408, 100.673
8487.328, 64.694, 99.145
8610.779, 60.432, 115.255
8736.026, 58.809, 143.567
8863.095, 60.184, 161.717
8992.011, 61.392, 166.673
9122.803, 61.868, 166.925
9255.497, 61.602, 166.760
9390.121, 60.987, 169.305
9526.704, 60.350, 173.350
9665.273, 59.493, 179.028
9805.857, 58.584, -170.177
9948.487, 58.440, -154.860
10093.191, 59.403, -138.875
10240.000, 61.526, -125.432
10388.944, 64.402, -119.290
10540.055, 67.093, -122.495
10693.363, 68.961, -132.310
10848.902, 69.930, -143.754
11006.703, 70.394, -154.003
11166.799, 70.650, -164.223
11329.224, 70.513, -175.866
11494.012, 69.643, 172.436
11661.195, 68.076, 164.577
11830.812, 66.256, 161.636
12002.895, 64.445, 162.779
12177.480, 62.734, 168.838
12354.606, 61.830, 179.463
12534.309, 61.931, -171.989
12716.624, 62.185, -166.199
12901.592, 62.871, -160.014
13089.250, 64.273, -159.251
13279.637, 65.070, -166.574
13472.794, 64.835, -174.572
13668.760, 64.109, -179.420
13867.577, 63.297, 178.200
14069.285, 62.490, 177.490
14273.928, 61.818, 177.565
14481.547, 61.073, 177.455
14692.186, 60.263, -179.889
14905.889, 60.212, -176.374
15122.700, 60.575, -179.943
15342.664, 60.028, 169.508
15565.829, 58.061, 157.609
15792.239, 54.247, 150.104
16021.942, 47.729, 173.133
16254.986, 46.873, -109.294
16491.422, 53.893, -78.081
16731.295, 58.370, -84.636
16974.656, 60.860, -98.772
17221.559, 62.067, -113.225
17472.053, 62.371, -126.765
17726.189, 61.676, -138.486
17984.021, 60.152, -141.921
18245.605, 59.325, -136.146
18510.994, 60.191, -130.951
18780.242, 61.761, -134.984
19053.408, 62.658, -148.674
19330.547, 62.347, -165.961
19611.715, 60.973, 176.714
19896.975, 58.603, 162.235
