* Measurement data measured by REW V5.19
* Source: ASIO MOTU M Series, In 1
* Format: 1M Log Swept Sine, 1 sweep at -3.0 dBFS  With no timing reference
* Dated: 7 Nov, 2021 10:02:37 PM
* REW Settings:
*  C-weighting compensation: Off
*  Target level: 75.0 dB
* Note: ; 
* Measurement: Nov 7 22:02:37
* Smoothing: 1/48 octave
* Frequency Step: 1/48 octave
* Start Frequency: 10.1 Hz
*
* Freq(Hz), SPL(dB), Phase(degrees)
10.145, 53.292, -54.425
10.293, 53.381, -54.921
10.443, 53.475, -55.569
10.595, 53.625, -56.387
10.749, 53.789, -57.223
10.905, 53.931, -57.826
11.064, 54.071, -58.354
11.225, 54.228, -59.022
11.388, 54.395, -59.772
11.554, 54.558, -60.547
11.722, 54.718, -61.354
11.892, 54.871, -62.182
12.065, 55.017, -63.028
12.241, 55.157, -63.876
12.419, 55.291, -64.715
12.599, 55.421, -65.495
12.782, 55.548, -66.232
12.968, 55.678, -66.938
13.157, 55.811, -67.622
13.348, 55.950, -68.284
13.543, 56.093, -68.963
13.740, 56.239, -69.666
13.939, 56.385, -70.408
14.142, 56.528, -71.181
14.348, 56.666, -71.979
14.557, 56.796, -72.777
14.768, 56.920, -73.561
14.983, 57.040, -74.303
15.201, 57.158, -75.002
15.422, 57.278, -75.656
15.646, 57.404, -76.285
15.874, 57.536, -76.913
16.105, 57.674, -77.563
16.339, 57.813, -78.261
16.577, 57.951, -79.005
16.818, 58.083, -79.791
17.063, 58.206, -80.591
17.311, 58.320, -81.372
17.563, 58.426, -82.109
17.818, 58.530, -82.783
18.077, 58.636, -83.391
18.340, 58.749, -83.956
18.607, 58.871, -84.508
18.877, 59.000, -85.077
19.152, 59.135, -85.690
19.431, 59.271, -86.357
19.713, 59.402, -87.063
20.000, 59.527, -87.789
20.291, 59.646, -88.510
20.586, 59.762, -89.209
20.885, 59.877, -89.882
21.189, 59.995, -90.541
21.497, 60.116, -91.208
21.810, 60.238, -91.901
22.127, 60.358, -92.626
22.449, 60.473, -93.372
22.776, 60.582, -94.119
23.107, 60.686, -94.845
23.443, 60.788, -95.541
23.784, 60.893, -96.217
24.130, 61.000, -96.893
24.481, 61.110, -97.594
24.837, 61.217, -98.329
25.198, 61.320, -99.088
25.565, 61.415, -99.848
25.937, 61.505, -100.587
26.314, 61.593, -101.297
26.697, 61.680, -101.985
27.085, 61.768, -102.665
27.479, 61.856, -103.346
27.879, 61.941, -104.027
28.284, 62.024, -104.703
28.696, 62.105, -105.369
29.113, 62.185, -106.027
29.537, 62.262, -106.676
29.966, 62.336, -107.312
30.402, 62.407, -107.927
30.844, 62.477, -108.512
31.293, 62.548, -109.071
31.748, 62.620, -109.613
32.210, 62.693, -110.149
32.678, 62.765, -110.678
33.154, 62.837, -111.192
33.636, 62.908, -111.682
34.125, 62.981, -112.153
34.621, 63.056, -112.615
35.125, 63.130, -113.069
35.636, 63.204, -113.497
36.154, 63.280, -113.884
36.680, 63.363, -114.240
37.214, 63.454, -114.591
37.755, 63.553, -114.949
38.304, 63.660, -115.313
38.861, 63.780, -115.720
39.427, 63.909, -116.234
40.000, 64.035, -116.876
40.582, 64.149, -117.590
41.172, 64.256, -118.320
41.771, 64.360, -119.088
42.379, 64.456, -119.929
42.995, 64.535, -120.802
43.620, 64.598, -121.642
44.255, 64.652, -122.446
44.898, 64.692, -123.206
45.552, 64.722, -123.863
46.214, 64.754, -124.416
46.886, 64.789, -124.956
47.568, 64.810, -125.465
48.260, 64.821, -125.787
48.962, 64.850, -125.894
49.674, 64.911, -125.942
50.397, 64.991, -126.020
51.130, 65.087, -126.099
51.874, 65.203, -126.182
52.628, 65.346, -126.327
53.394, 65.512, -126.645
54.170, 65.681, -127.199
54.958, 65.838, -127.896
55.758, 65.992, -128.697
56.569, 66.135, -129.679
57.391, 66.253, -130.762
58.226, 66.355, -131.867
59.073, 66.441, -133.060
59.932, 66.498, -134.233
60.804, 66.546, -135.312
61.688, 66.587, -136.408
62.586, 66.609, -137.462
63.496, 66.622, -138.425
64.420, 66.626, -139.310
65.357, 66.626, -140.093
66.307, 66.624, -140.796
67.272, 66.626, -141.371
68.250, 66.648, -141.921
69.243, 66.675, -142.522
70.250, 66.709, -143.155
71.272, 66.740, -143.872
72.309, 66.762, -144.593
73.360, 66.780, -145.306
74.427, 66.791, -145.999
75.510, 66.802, -146.647
76.608, 66.811, -147.298
77.723, 66.817, -147.935
78.853, 66.820, -148.568
80.000, 66.819, -149.173
81.164, 66.820, -149.751
82.344, 66.821, -150.333
83.542, 66.821, -150.914
84.757, 66.818, -151.485
85.990, 66.812, -152.006
87.241, 66.809, -152.507
88.510, 66.804, -153.015
89.797, 66.794, -153.498
91.103, 66.786, -153.974
92.428, 66.776, -154.440
93.773, 66.766, -154.882
95.137, 66.757, -155.297
96.520, 66.751, -155.690
97.924, 66.743, -156.092
99.349, 66.735, -156.482
100.794, 66.726, -156.906
102.260, 66.716, -157.276
103.747, 66.715, -157.642
105.256, 66.711, -158.051
106.787, 66.694, -158.342
108.340, 66.688, -158.678
109.916, 66.669, -158.979
111.515, 66.667, -159.314
113.137, 66.664, -159.703
114.783, 66.652, -160.022
116.452, 66.640, -160.210
118.146, 66.623, -160.370
119.865, 66.637, -160.453
121.608, 66.628, -161.000
123.377, 66.598, -161.335
125.171, 66.574, -161.575
126.992, 66.565, -161.764
128.839, 66.556, -161.976
130.713, 66.544, -162.187
132.615, 66.538, -162.365
134.543, 66.537, -162.555
136.500, 66.539, -162.718
138.486, 66.540, -162.923
140.500, 66.540, -163.158
142.544, 66.535, -163.385
144.617, 66.531, -163.599
146.721, 66.524, -163.815
148.855, 66.519, -164.023
151.020, 66.511, -164.209
153.217, 66.506, -164.354
155.445, 66.500, -164.537
157.706, 66.491, -164.742
160.000, 66.485, -164.905
162.327, 66.480, -164.989
164.688, 66.475, -165.177
167.084, 66.443, -165.310
169.514, 66.441, -165.432
171.980, 66.442, -165.512
174.481, 66.449, -165.612
177.019, 66.435, -165.697
179.594, 66.434, -165.815
182.206, 66.428, -165.967
184.856, 66.427, -166.063
187.545, 66.429, -166.123
190.273, 66.424, -166.221
193.041, 66.423, -166.338
195.849, 66.431, -166.437
198.697, 66.442, -166.459
201.587, 66.441, -166.626
204.520, 66.426, -166.737
207.494, 66.418, -166.845
210.512, 66.407, -166.856
213.574, 66.407, -166.857
216.681, 66.408, -166.915
219.833, 66.405, -166.952
223.030, 66.408, -166.994
226.274, 66.411, -167.069
229.565, 66.417, -167.193
232.905, 66.422, -167.204
236.292, 66.411, -167.058
239.729, 66.401, -166.914
243.216, 66.406, -166.974
246.754, 66.406, -166.915
250.343, 66.411, -166.833
253.984, 66.420, -166.787
257.678, 66.408, -166.676
261.426, 66.432, -166.375
265.229, 66.488, -166.200
269.087, 66.541, -166.076
273.001, 66.607, -166.114
276.972, 66.668, -166.321
281.000, 66.714, -166.466
285.088, 66.758, -166.686
289.234, 66.789, -167.035
293.441, 66.804, -167.281
297.710, 66.812, -167.423
302.040, 66.830, -167.601
306.433, 66.839, -167.837
310.890, 66.838, -167.909
315.412, 66.852, -167.859
320.000, 66.901, -167.936
324.655, 66.960, -168.158
329.377, 66.987, -168.612
334.168, 66.970, -168.774
339.028, 67.012, -168.765
343.959, 67.065, -168.971
348.962, 67.107, -169.335
354.038, 67.143, -169.672
359.188, 67.181, -169.993
364.412, 67.230, -170.397
369.713, 67.291, -170.959
375.090, 67.347, -171.700
380.546, 67.389, -172.669
386.081, 67.397, -173.938
391.697, 67.332, -175.291
397.395, 67.259, -176.519
403.175, 67.131, -178.029
409.039, 66.891, -179.606
414.989, 66.529, 179.375
421.025, 66.093, 179.085
427.149, 65.592, -179.817
433.362, 65.237, -177.124
439.665, 65.122, -174.101
446.060, 65.187, -171.606
452.548, 65.318, -169.814
459.131, 65.499, -168.576
465.809, 65.664, -168.133
472.584, 65.758, -167.775
479.458, 65.864, -167.553
486.432, 65.920, -167.413
493.507, 65.975, -167.215
500.686, 66.028, -167.090
507.968, 66.057, -166.942
515.357, 66.057, -166.639
522.853, 66.130, -165.980
530.458, 66.229, -165.856
538.174, 66.297, -165.843
546.002, 66.350, -165.962
553.943, 66.339, -165.884
562.001, 66.401, -165.490
570.175, 66.477, -165.481
578.469, 66.516, -165.528
586.883, 66.583, -165.471
595.419, 66.625, -165.525
604.080, 66.694, -165.637
612.866, 66.725, -166.029
621.780, 66.707, -166.451
630.824, 66.624, -166.576
640.000, 66.600, -165.989
649.309, 66.632, -165.895
658.753, 66.571, -165.843
668.335, 66.556, -165.162
678.056, 66.589, -164.555
687.919, 66.635, -163.795
697.925, 66.739, -163.249
708.076, 66.834, -163.243
718.376, 66.826, -162.729
728.825, 66.975, -161.936
739.426, 67.098, -162.177
750.181, 67.087, -161.643
761.093, 67.220, -160.519
772.163, 67.470, -159.242
783.394, 67.930, -158.655
794.789, 68.453, -160.198
806.349, 68.727, -163.483
818.078, 68.667, -166.137
829.977, 68.658, -167.746
842.050, 68.554, -169.818
854.297, 68.367, -170.778
866.724, 68.227, -171.309
879.330, 68.188, -171.319
892.120, 68.180, -172.088
905.097, 68.101, -172.725
918.262, 68.117, -173.246
931.618, 68.009, -174.313
945.169, 67.954, -174.970
958.917, 67.828, -175.920
972.864, 67.617, -176.946
987.015, 67.408, -176.782
1001.371, 67.196, -176.900
1015.937, 67.001, -175.860
1030.714, 66.969, -175.068
1045.706, 67.007, -174.258
1060.916, 67.033, -175.125
1076.347, 66.937, -175.150
1092.003, 66.837, -175.831
1107.887, 66.610, -175.495
1124.001, 66.508, -174.529
1140.350, 66.528, -173.391
1156.937, 66.617, -173.791
1173.765, 66.632, -174.314
1190.838, 66.589, -175.981
1208.159, 66.329, -176.587
1225.732, 66.118, -178.472
1243.561, 65.319, -179.319
1261.649, 64.636, -175.422
1280.000, 64.341, -170.569
1298.618, 64.564, -165.550
1317.507, 64.903, -163.517
1336.670, 65.192, -162.180
1356.113, 65.386, -162.002
1375.838, 65.455, -161.627
1395.850, 65.480, -161.113
1416.153, 65.511, -159.822
1436.751, 65.535, -158.294
1457.649, 65.935, -156.495
1478.851, 66.266, -157.171
1500.362, 66.383, -158.573
1522.185, 66.384, -159.002
1544.326, 66.379, -160.294
1566.789, 66.013, -160.631
1589.578, 65.908, -157.405
1612.699, 66.196, -156.024
1636.156, 66.442, -156.766
1659.955, 66.327, -157.131
1684.099, 66.448, -156.067
1708.595, 66.577, -156.753
1733.447, 66.701, -156.585
1758.661, 66.961, -158.547
1784.241, 66.959, -163.243
1810.193, 66.316, -168.637
1836.523, 64.716, -171.000
1863.236, 62.877, -161.716
1890.338, 62.563, -149.154
1917.833, 63.191, -139.220
1945.729, 64.154, -133.615
1974.030, 64.785, -131.256
2002.743, 65.482, -128.138
2031.873, 66.286, -126.455
2061.428, 67.065, -127.728
2091.412, 67.268, -129.359
2121.832, 67.362, -128.765
2152.695, 67.683, -127.188
2184.007, 68.111, -126.370
2215.774, 68.444, -125.611
2248.003, 69.089, -124.524
2280.701, 69.523, -126.342
2313.874, 69.839, -127.327
2347.530, 70.180, -127.536
2381.676, 70.533, -130.305
2416.318, 70.329, -131.454
2451.464, 70.254, -129.510
2487.122, 70.641, -126.878
2523.298, 71.366, -125.420
2560.000, 71.996, -127.490
2597.236, 72.341, -129.544
2635.014, 72.522, -130.261
2673.341, 73.178, -130.568
2712.226, 73.681, -135.632
2751.676, 73.289, -139.205
2791.700, 73.212, -136.613
2832.306, 74.010, -136.293
2873.503, 74.424, -141.331
2915.299, 74.199, -144.187
2957.703, 74.182, -143.822
3000.724, 74.490, -144.537
3044.370, 74.667, -145.519
3088.652, 75.131, -146.030
3133.577, 75.608, -149.486
3179.156, 75.801, -153.015
3225.398, 76.086, -156.667
3272.312, 76.120, -162.513
3319.909, 75.664, -166.894
3368.198, 75.281, -168.165
3417.190, 75.115, -169.759
3466.894, 75.026, -170.542
3517.321, 75.144, -174.121
3568.482, 74.700, -178.200
3620.387, 74.132, 179.878
3673.046, 73.413, 179.016
3726.472, 72.915, -176.942
3780.675, 73.209, -175.615
3835.666, 73.303, -177.192
3891.457, 73.063, -179.059
3948.060, 72.823, -178.895
4005.486, 72.627, -179.405
4063.747, 72.467, -178.766
4122.855, 72.397, -179.178
4182.824, 72.368, -179.132
4243.664, 72.241, 178.346
4305.390, 71.607, 178.132
4368.013, 71.261, -179.421
4431.547, 71.099, -176.326
4496.005, 71.397, -173.632
4561.401, 71.734, -173.374
4627.749, 72.049, -174.306
4695.061, 72.238, -177.926
4763.352, 71.520, -179.768
4832.637, 71.176, -176.305
4902.929, 71.431, -172.566
4974.244, 72.260, -172.943
5046.596, 72.356, -178.058
5120.000, 71.886, -179.296
5194.472, 71.790, -178.288
5270.027, 71.813, -177.854
5346.682, 72.031, -177.061
5424.451, 72.502, -178.658
5503.352, 72.593, 176.059
5583.399, 72.009, 173.775
5664.612, 71.648, 173.756
5747.006, 71.498, 174.071
5830.598, 71.434, 174.463
5915.406, 71.501, 173.174
6001.447, 71.220, 170.902
6088.740, 70.740, 172.062
6177.303, 70.944, 173.910
6267.154, 71.067, 171.524
6358.312, 70.761, 169.208
6450.796, 70.400, 169.656
6544.625, 70.311, 169.384
6639.818, 70.014, 168.654
6736.397, 69.800, 168.851
6834.380, 69.505, 168.310
6933.789, 69.128, 169.270
7034.643, 68.858, 170.507
7136.964, 68.595, 172.632
7240.773, 68.557, 174.918
7346.093, 68.633, 176.887
7452.944, 68.727, 177.814
7561.350, 68.749, 179.498
7671.332, 69.011, -178.620
7782.915, 69.414, -177.485
7896.120, 69.866, -177.462
8010.971, 70.511, -178.193
8127.493, 71.172, 178.114
8245.711, 71.576, 172.558
8365.647, 71.704, 165.795
8487.328, 71.670, 157.336
8610.779, 70.796, 147.512
8736.026, 69.381, 141.739
8863.095, 67.745, 138.444
8992.011, 65.730, 139.658
9122.803, 63.921, 148.299
9255.497, 63.403, 159.936
9390.121, 63.876, 165.441
9526.704, 63.719, 165.548
9665.273, 63.347, 167.432
9805.857, 62.322, 168.541
9948.487, 61.551, -178.856
10093.191, 61.825, -170.460
10240.000, 62.895, -163.051
10388.944, 63.206, -164.471
10540.055, 63.237, -157.303
10693.363, 64.254, -151.967
10848.902, 65.438, -147.923
11006.703, 67.501, -149.128
11166.799, 68.477, -161.900
11329.224, 67.699, -164.061
11494.012, 69.410, -165.997
11661.195, 69.307, 177.619
11830.812, 67.816, 172.440
12002.895, 67.234, 172.789
12177.480, 67.291, 172.884
12354.606, 67.752, 166.145
12534.309, 67.596, 156.536
12716.624, 66.181, 139.740
12901.592, 62.817, 148.032
13089.250, 62.114, 152.339
13279.637, 61.371, 156.464
13472.794, 61.235, 158.459
13668.760, 61.055, 157.270
13867.577, 60.505, 152.543
14069.285, 59.567, 147.398
14273.928, 57.843, 136.510
14481.547, 53.212, 140.833
14692.186, 50.958, -172.520
14905.889, 54.608, -158.352
15122.700, 56.865, -171.700
15342.664, 56.585, 158.065
15565.829, 53.833, 112.553
15792.239, 52.014, 41.257
16021.942, 56.191, -17.719
16254.986, 59.733, -53.501
16491.422, 61.696, -77.673
16731.295, 62.825, -95.380
16974.656, 63.052, -112.612
17221.559, 62.359, -124.404
17472.053, 62.290, -132.666
17726.189, 61.506, -148.319
17984.021, 58.338, -158.439
18245.605, 54.954, -131.299
18510.994, 58.244, -114.354
18780.242, 59.072, -132.623
19053.408, 56.829, -135.110
19330.547, 56.307, -125.815
19611.715, 56.866, -122.644
19896.975, 57.027, -122.611
