* Measurement data measured by REW V5.19
* Source: ASIO MOTU M Series, In 1
* Format: 1M Log Swept Sine, 2 sweeps at -10.0 dBFS  With no timing reference
* Dated: 15 Sep, 2020 2:01:02 PM
* REW Settings:
*  C-weighting compensation: Off
*  Target level: 75.0 dB
* Note: ; 
* Measurement: Sep 15 14:01:02
* Smoothing: None
* Frequency Step: 1/48 octave
* Start Frequency: 10.0 Hz
*
* Freq(Hz), SPL(dB), Phase(degrees)
10.145, 60.354, -64.379
10.293, 60.544, -65.434
10.443, 60.725, -66.571
10.595, 60.893, -67.788
10.749, 61.040, -69.055
10.905, 61.167, -70.367
11.064, 61.275, -71.623
11.225, 61.361, -72.835
11.388, 61.438, -73.943
11.554, 61.503, -74.918
11.722, 61.569, -75.783
11.892, 61.643, -76.521
12.065, 61.727, -77.182
12.241, 61.830, -77.816
12.419, 61.947, -78.445
12.599, 62.078, -79.153
12.782, 62.217, -79.930
12.968, 62.356, -80.816
13.157, 62.492, -81.788
13.348, 62.615, -82.821
13.543, 62.728, -83.887
13.740, 62.828, -84.935
13.939, 62.920, -85.948
14.142, 63.005, -86.893
14.348, 63.092, -87.782
14.557, 63.183, -88.613
14.768, 63.280, -89.429
14.983, 63.385, -90.239
15.201, 63.493, -91.078
15.422, 63.602, -91.939
15.646, 63.708, -92.825
15.874, 63.809, -93.699
16.105, 63.906, -94.548
16.339, 64.002, -95.341
16.577, 64.101, -96.085
16.818, 64.207, -96.786
17.063, 64.324, -97.490
17.311, 64.447, -98.232
17.563, 64.573, -99.038
17.818, 64.692, -99.921
18.077, 64.797, -100.837
18.340, 64.885, -101.739
18.607, 64.954, -102.554
18.877, 65.016, -103.211
19.152, 65.083, -103.708
19.431, 65.168, -104.075
19.713, 65.282, -104.407
20.000, 65.423, -104.850
20.291, 65.574, -105.487
20.586, 65.718, -106.344
20.885, 65.834, -107.374
21.189, 65.909, -108.439
21.497, 65.950, -109.373
21.810, 65.975, -110.073
22.127, 66.010, -110.537
22.449, 66.078, -110.872
22.776, 66.186, -111.264
23.107, 66.320, -111.895
23.443, 66.451, -112.835
23.784, 66.550, -114.009
24.130, 66.606, -115.240
24.481, 66.624, -116.348
24.837, 66.629, -117.234
25.198, 66.645, -117.921
25.565, 66.685, -118.531
25.937, 66.747, -119.194
26.314, 66.815, -119.964
26.697, 66.875, -120.797
27.085, 66.926, -121.605
27.479, 66.978, -122.343
27.879, 67.042, -123.056
28.284, 67.115, -123.837
28.696, 67.180, -124.720
29.113, 67.221, -125.614
29.537, 67.241, -126.344
29.966, 67.270, -126.824
30.402, 67.339, -127.194
30.844, 67.447, -127.749
31.293, 67.551, -128.663
31.748, 67.601, -129.766
32.210, 67.591, -130.642
32.678, 67.581, -131.035
33.154, 67.639, -131.164
33.636, 67.767, -131.581
34.125, 67.893, -132.555
34.621, 67.947, -133.807
35.125, 67.935, -134.816
35.636, 67.922, -135.385
36.154, 67.958, -135.777
36.680, 68.027, -136.351
37.214, 68.085, -137.156
37.755, 68.108, -137.984
38.304, 68.105, -138.618
38.861, 68.112, -138.970
39.427, 68.165, -139.195
40.000, 68.259, -139.664
40.582, 68.336, -140.495
41.172, 68.361, -141.325
41.771, 68.381, -141.934
42.379, 68.426, -142.690
42.995, 68.409, -143.721
43.620, 68.300, -144.194
44.255, 68.275, -143.641
44.898, 68.454, -143.500
45.552, 68.617, -144.848
46.214, 68.557, -146.448
46.886, 68.415, -146.675
47.568, 68.463, -146.185
48.260, 68.639, -146.715
48.962, 68.715, -148.179
49.674, 68.653, -149.360
50.397, 68.590, -149.742
51.130, 68.620, -149.946
51.874, 68.679, -150.525
52.628, 68.710, -151.189
53.394, 68.741, -151.818
54.170, 68.747, -152.504
54.958, 68.737, -152.876
55.758, 68.779, -153.231
56.569, 68.798, -153.883
57.391, 68.803, -154.354
58.226, 68.820, -155.118
59.073, 68.751, -155.678
59.932, 68.810, -155.697
60.804, 68.900, -157.258
61.688, 68.693, -158.336
62.586, 68.689, -157.372
63.496, 68.912, -158.217
64.420, 68.874, -159.608
65.357, 68.869, -159.729
66.307, 68.941, -160.589
67.272, 68.847, -161.414
68.250, 68.803, -161.317
69.243, 68.793, -161.997
70.250, 68.629, -161.937
71.272, 68.741, -161.327
72.309, 68.841, -162.917
73.360, 68.687, -164.095
74.427, 68.591, -163.945
75.510, 68.728, -164.038
76.608, 68.749, -165.738
77.723, 68.569, -165.911
78.853, 68.594, -165.485
80.000, 68.598, -165.751
81.164, 68.567, -165.867
82.344, 68.507, -166.093
83.542, 68.483, -166.006
84.757, 68.455, -166.688
85.990, 68.405, -166.695
87.241, 68.372, -167.325
88.510, 68.328, -166.723
89.797, 68.438, -166.947
91.103, 68.438, -167.524
92.428, 68.383, -167.481
93.773, 68.459, -167.792
95.137, 68.407, -168.131
96.520, 68.468, -168.470
97.924, 68.416, -169.169
99.349, 68.356, -169.104
100.794, 68.343, -169.682
102.260, 68.218, -169.902
103.747, 68.186, -170.109
105.256, 68.086, -170.801
106.787, 68.035, -170.000
108.340, 68.070, -170.140
109.916, 68.044, -170.130
111.515, 67.934, -169.696
113.137, 67.987, -169.107
114.783, 67.921, -169.649
116.452, 68.038, -168.525
118.146, 68.002, -169.103
119.865, 68.082, -168.975
121.608, 68.108, -168.199
123.377, 68.076, -168.191
125.171, 68.285, -168.049
126.992, 68.172, -168.437
128.839, 68.337, -168.317
130.713, 68.314, -169.067
132.615, 68.431, -167.973
134.543, 68.610, -170.114
136.500, 68.403, -168.485
138.486, 68.694, -168.816
140.500, 68.724, -169.354
142.544, 68.742, -169.944
144.617, 68.790, -170.919
146.721, 68.805, -170.677
148.855, 68.744, -171.360
151.020, 68.781, -171.952
153.217, 68.753, -171.688
155.445, 68.743, -172.163
157.706, 68.694, -172.365
160.000, 68.706, -173.082
162.327, 68.803, -173.646
164.688, 68.815, -173.802
167.084, 68.837, -173.548
169.514, 68.779, -173.917
171.980, 68.843, -174.239
174.481, 68.812, -174.475
177.019, 68.869, -175.228
179.594, 68.939, -175.396
182.206, 68.905, -175.362
184.856, 68.880, -175.834
187.545, 68.921, -176.331
190.273, 68.928, -176.746
193.041, 68.876, -176.771
195.849, 68.946, -177.079
198.697, 68.877, -177.647
201.587, 68.893, -177.827
204.520, 68.866, -178.330
207.494, 68.885, -178.532
210.512, 68.907, -178.818
213.574, 68.822, -179.049
216.681, 68.854, -179.642
219.833, 68.858, -179.641
223.030, 68.878, 179.983
226.274, 68.859, 179.333
229.565, 68.864, 179.249
232.905, 68.835, 178.805
236.292, 68.860, 178.252
239.729, 68.821, 178.270
243.216, 68.843, 177.845
246.754, 68.765, 177.203
250.343, 68.717, 177.107
253.984, 68.681, 176.723
257.678, 68.656, 176.405
261.426, 68.684, 175.723
265.229, 68.595, 175.690
269.087, 68.478, 174.601
273.001, 68.434, 174.765
276.972, 68.263, 175.043
281.000, 68.360, 175.119
285.088, 68.204, 176.218
289.234, 68.362, 175.575
293.441, 68.273, 175.502
297.710, 68.221, 175.711
302.040, 68.278, 175.140
306.433, 68.278, 174.974
310.890, 68.272, 175.037
315.412, 68.228, 174.500
320.000, 68.288, 174.741
324.655, 68.249, 174.288
329.377, 68.243, 174.168
334.168, 68.271, 174.086
339.028, 68.211, 173.697
343.959, 68.176, 173.025
348.962, 68.171, 173.173
354.038, 68.097, 172.858
359.188, 68.163, 172.686
364.412, 68.105, 172.360
369.713, 68.070, 172.388
375.090, 68.038, 172.109
380.546, 68.130, 171.625
386.081, 68.263, 172.222
391.697, 67.855, 171.422
397.395, 68.045, 170.851
403.175, 67.875, 170.181
409.039, 67.999, 170.726
414.989, 67.781, 170.851
421.025, 67.820, 170.273
427.149, 67.795, 169.283
433.362, 67.720, 169.071
439.665, 67.678, 169.681
446.060, 67.668, 169.206
452.548, 67.582, 168.988
459.131, 67.624, 168.534
465.809, 67.549, 168.671
472.584, 67.533, 168.725
479.458, 67.512, 168.549
486.432, 67.443, 167.923
493.507, 67.374, 167.702
500.686, 67.332, 167.375
507.968, 67.294, 166.883
515.357, 67.195, 166.683
522.853, 67.091, 166.531
530.458, 66.992, 166.477
538.174, 66.960, 166.602
546.002, 66.900, 166.314
553.943, 66.867, 166.342
562.001, 66.853, 165.880
570.175, 66.779, 165.689
578.469, 66.605, 165.001
586.883, 66.546, 164.844
595.419, 66.425, 164.598
604.080, 66.301, 164.581
612.866, 66.197, 164.771
621.780, 66.071, 164.823
630.824, 65.977, 164.888
640.000, 65.862, 164.993
649.309, 65.775, 164.925
658.753, 65.631, 164.777
668.335, 65.497, 164.536
678.056, 65.314, 165.291
687.919, 65.125, 165.526
697.925, 64.887, 166.353
708.076, 64.838, 167.922
718.376, 64.874, 168.985
728.825, 64.848, 169.633
739.426, 64.838, 169.848
750.181, 64.779, 170.190
761.093, 64.706, 170.578
772.163, 64.647, 170.777
783.394, 64.569, 171.243
794.789, 64.446, 171.914
806.349, 64.419, 172.664
818.078, 64.313, 173.386
829.977, 64.296, 174.180
842.050, 64.249, 175.001
854.297, 64.245, 175.923
866.724, 64.276, 176.707
879.330, 64.331, 176.880
892.120, 64.295, 177.436
905.097, 64.322, 177.729
918.262, 64.349, 177.872
931.618, 64.358, 177.931
945.169, 64.283, 178.130
958.917, 64.276, 178.314
972.864, 64.155, 178.734
987.015, 64.091, 179.668
1001.371, 64.064, 179.853
1015.937, 63.964, 179.860
1030.714, 63.836, -179.959
1045.706, 63.705, -179.080
1060.916, 63.704, -178.294
1076.347, 63.583, -177.583
1092.003, 63.490, -176.744
1107.887, 63.355, -174.931
1124.001, 63.475, -173.583
1140.350, 63.339, -173.237
1156.937, 63.330, -172.081
1173.765, 63.366, -171.061
1190.838, 63.322, -170.115
1208.159, 63.248, -168.553
1225.732, 63.352, -167.006
1243.561, 63.275, -165.921
1261.649, 63.321, -164.145
1280.000, 63.391, -162.444
1298.618, 63.561, -161.365
1317.507, 63.566, -159.839
1336.670, 63.736, -159.178
1356.113, 63.773, -157.637
1375.838, 63.790, -156.581
1395.850, 64.028, -155.319
1416.153, 64.099, -153.829
1436.751, 64.187, -152.857
1457.649, 64.441, -150.895
1478.851, 64.636, -150.719
1500.362, 64.774, -149.098
1522.185, 65.058, -147.219
1544.326, 65.305, -147.664
1566.789, 65.545, -145.687
1589.578, 65.798, -144.209
1612.699, 66.297, -141.890
1636.156, 67.178, -142.673
1659.955, 67.671, -146.222
1684.099, 67.808, -149.060
1708.595, 67.932, -151.416
1733.447, 67.993, -153.909
1758.661, 67.941, -158.185
1784.241, 67.316, -163.572
1810.193, 64.391, -164.485
1836.523, 65.037, -133.238
1863.236, 67.811, -133.993
1890.338, 68.805, -139.245
1917.833, 69.213, -143.387
1945.729, 69.533, -145.375
1974.030, 69.806, -147.564
2002.743, 70.091, -149.496
2031.873, 70.452, -151.711
2061.428, 70.646, -155.305
2091.412, 70.797, -158.675
2121.832, 70.807, -162.005
2152.695, 70.678, -165.014
2184.007, 70.449, -167.463
2215.774, 70.257, -169.461
2248.003, 70.111, -171.005
2280.701, 69.838, -172.275
2313.874, 69.578, -173.848
2347.530, 69.275, -174.891
2381.676, 68.916, -175.626
2416.318, 68.586, -175.571
2451.464, 68.243, -175.237
2487.122, 67.881, -174.293
2523.298, 67.634, -173.115
2560.000, 67.300, -171.289
2597.236, 67.093, -168.460
2635.014, 66.988, -165.972
2673.341, 67.102, -162.933
2712.226, 67.119, -160.649
2751.676, 67.340, -157.289
2791.700, 67.751, -154.742
2832.306, 68.237, -153.517
2873.503, 68.774, -152.681
2915.299, 69.398, -154.005
2957.703, 69.725, -156.909
3000.724, 69.655, -159.323
3044.370, 69.479, -160.118
3088.652, 69.325, -159.797
3133.577, 69.289, -158.199
3179.156, 69.462, -155.830
3225.398, 69.738, -154.039
3272.312, 70.328, -151.693
3319.909, 71.247, -153.268
3368.198, 71.552, -157.122
3417.190, 71.622, -158.704
3466.894, 72.025, -159.633
3517.321, 72.317, -162.877
3568.482, 72.358, -165.116
3620.387, 72.681, -167.403
3673.046, 72.803, -171.197
3726.472, 72.771, -173.853
3780.675, 72.613, -177.974
3835.666, 72.301, 179.414
3891.457, 71.941, 177.812
3948.060, 71.617, 177.009
4005.486, 71.434, 176.916
4063.747, 71.290, 175.917
4122.855, 71.031, 175.191
4182.824, 70.769, 175.176
4243.664, 70.591, 175.690
4305.390, 70.444, 175.775
4368.013, 70.240, 176.073
4431.547, 70.024, 177.088
4496.005, 69.880, 178.877
4561.401, 69.884, -178.850
4627.749, 70.025, -176.584
4695.061, 70.317, -174.528
4763.352, 70.777, -173.103
4832.637, 71.373, -173.417
4902.929, 71.826, -175.224
4974.244, 72.122, -177.376
5046.596, 72.372, -179.399
5120.000, 72.582, 178.280
5194.472, 72.751, 175.803
5270.027, 72.828, 173.112
5346.682, 72.834, 170.716
5424.451, 72.812, 168.770
5503.352, 72.855, 167.142
5583.399, 72.946, 165.136
5664.612, 73.038, 162.650
5747.006, 73.073, 159.659
5830.598, 73.014, 156.372
5915.406, 72.853, 153.420
6001.447, 72.667, 150.825
6088.740, 72.472, 148.243
6177.303, 72.222, 145.929
6267.154, 71.964, 143.913
6358.312, 71.722, 142.172
6450.796, 71.511, 140.352
6544.625, 71.310, 138.843
6639.818, 71.118, 137.283
6736.397, 71.007, 135.542
6834.380, 70.946, 133.204
6933.789, 70.782, 129.991
7034.643, 70.533, 126.635
7136.964, 70.187, 123.303
7240.773, 69.776, 120.226
7346.093, 69.335, 117.358
7452.944, 68.884, 114.648
7561.350, 68.446, 111.914
7671.332, 68.038, 108.614
7782.915, 67.558, 104.331
7896.120, 66.921, 99.325
8010.971, 66.034, 93.433
8127.493, 64.800, 87.173
8245.711, 63.066, 81.821
8365.647, 60.850, 78.635
8487.328, 58.144, 79.114
8610.779, 54.915, 87.337
8736.026, 52.775, 108.516
8863.095, 52.725, 128.681
8992.011, 53.551, 140.108
9122.803, 53.850, 146.684
9255.497, 53.998, 154.022
9390.121, 54.339, 161.732
9526.704, 54.951, 167.873
9665.273, 55.589, 171.860
9805.857, 56.012, 174.464
9948.487, 56.273, 177.938
10093.191, 56.673, -177.556
10240.000, 57.384, -173.123
10388.944, 58.402, -170.576
10540.055, 59.501, -170.949
10693.363, 60.421, -174.074
10848.902, 61.033, -178.553
11006.703, 61.420, 176.862
11166.799, 61.822, 172.078
11329.224, 62.093, 164.933
11494.012, 62.067, 156.081
11661.195, 61.506, 145.591
11830.812, 60.184, 135.776
12002.895, 58.226, 129.443
12177.480, 55.863, 129.001
12354.606, 54.080, 135.596
12534.309, 53.373, 142.228
12716.624, 53.129, 142.686
12901.592, 52.131, 136.186
13089.250, 49.375, 130.396
13279.637, 45.400, 134.495
13472.794, 40.624, 144.793
13668.760, 31.864, -136.512
13867.577, 43.614, -87.237
14069.285, 49.491, -89.880
14273.928, 53.331, -105.713
14481.547, 52.928, -121.694
14692.186, 52.237, -122.199
14905.889, 51.882, -116.717
15122.700, 52.332, -106.113
15342.664, 54.012, -97.899
15565.829, 56.095, -96.043
15792.239, 58.026, -98.828
16021.942, 59.673, -105.333
16254.986, 60.961, -114.065
16491.422, 61.964, -125.181
16731.295, 62.345, -139.198
16974.656, 61.891, -152.566
17221.559, 60.997, -163.747
17472.053, 59.565, -172.802
17726.189, 57.935, -177.773
17984.021, 56.357, -178.864
18245.605, 55.316, -176.611
18510.994, 55.106, -178.211
18780.242, 53.991, 174.311
19053.408, 52.052, 171.727
19330.547, 50.138, 174.093
19611.715, 48.764, 179.554
19896.975, 47.772, -177.503
