* Measurement data measured by REW V5.19
* Source: ASIO MOTU M Series, In 1
* Format: 1M Log Swept Sine, 4 sweeps at -10.0 dBFS  With no timing reference
* Dated: 4 Sep, 2020 7:30:37 PM
* REW Settings:
*  C-weighting compensation: Off
*  Target level: 75.0 dB
* Note: ; 
* Measurement: Sep 4 19:30:37
* Smoothing: None
* Frequency Step: 1/48 octave
* Start Frequency: 10.0 Hz
*
* Freq(Hz), SPL(dB), Phase(degrees)
10.145, 64.840, -83.231
10.293, 64.913, -84.584
10.443, 64.982, -85.805
10.595, 65.049, -87.005
10.749, 65.116, -88.186
10.905, 65.182, -89.347
11.064, 65.248, -90.500
11.225, 65.313, -91.641
11.388, 65.378, -92.777
11.554, 65.441, -93.911
11.722, 65.502, -95.040
11.892, 65.560, -96.165
12.065, 65.615, -97.281
12.241, 65.666, -98.384
12.419, 65.713, -99.469
12.599, 65.757, -100.526
12.782, 65.798, -101.553
12.968, 65.836, -102.541
13.157, 65.874, -103.491
13.348, 65.912, -104.397
13.543, 65.953, -105.263
13.740, 65.998, -106.094
13.939, 66.047, -106.902
14.142, 66.104, -107.695
14.348, 66.167, -108.497
14.557, 66.237, -109.316
14.768, 66.311, -110.179
14.983, 66.388, -111.091
15.201, 66.464, -112.065
15.422, 66.535, -113.091
15.646, 66.599, -114.168
15.874, 66.653, -115.266
16.105, 66.696, -116.371
16.339, 66.729, -117.451
16.577, 66.754, -118.490
16.818, 66.773, -119.478
17.063, 66.791, -120.413
17.311, 66.809, -121.307
17.563, 66.830, -122.171
17.818, 66.853, -123.024
18.077, 66.876, -123.874
18.340, 66.898, -124.720
18.607, 66.919, -125.558
18.877, 66.937, -126.380
19.152, 66.955, -127.182
19.431, 66.973, -127.966
19.713, 66.992, -128.740
20.000, 67.010, -129.514
20.291, 67.026, -130.288
20.586, 67.038, -131.053
20.885, 67.047, -131.795
21.189, 67.052, -132.497
21.497, 67.059, -133.153
21.810, 67.068, -133.774
22.127, 67.083, -134.379
22.449, 67.102, -134.992
22.776, 67.124, -135.631
23.107, 67.143, -136.303
23.443, 67.158, -136.999
23.784, 67.163, -137.697
24.130, 67.159, -138.364
24.481, 67.148, -138.956
24.837, 67.136, -139.445
25.198, 67.136, -139.836
25.565, 67.156, -140.192
25.937, 67.198, -140.622
26.314, 67.248, -141.220
26.697, 67.286, -141.998
27.085, 67.294, -142.860
27.479, 67.272, -143.644
27.879, 67.235, -144.231
28.284, 67.211, -144.636
28.696, 67.213, -145.006
29.113, 67.230, -145.498
29.537, 67.236, -146.134
29.966, 67.216, -146.777
30.402, 67.180, -147.275
30.844, 67.155, -147.617
31.293, 67.154, -147.962
31.748, 67.160, -148.469
32.210, 67.141, -149.101
32.678, 67.090, -149.646
33.154, 67.031, -149.950
33.636, 66.999, -150.093
34.125, 66.995, -150.313
34.621, 66.992, -150.704
35.125, 66.968, -151.128
35.636, 66.937, -151.442
36.154, 66.918, -151.709
36.680, 66.901, -152.047
37.214, 66.864, -152.358
37.755, 66.825, -152.436
38.304, 66.824, -152.359
38.861, 66.858, -152.454
39.427, 66.875, -152.774
40.000, 66.858, -152.995
40.582, 66.846, -152.969
41.172, 66.858, -152.917
41.771, 66.870, -152.930
42.379, 66.874, -152.848
42.995, 66.899, -152.739
43.620, 66.925, -152.810
44.255, 66.916, -152.903
44.898, 66.904, -152.759
45.552, 66.930, -152.617
46.214, 66.960, -152.739
46.886, 66.954, -152.951
47.568, 66.913, -152.919
48.260, 66.886, -152.296
48.962, 66.999, -151.267
49.674, 67.257, -151.063
50.397, 67.444, -152.000
51.130, 67.496, -152.747
51.874, 67.585, -153.165
52.628, 67.653, -154.340
53.394, 67.538, -155.409
54.170, 67.422, -155.373
54.958, 67.432, -155.490
55.758, 67.421, -156.216
56.569, 67.379, -156.919
57.391, 67.333, -157.628
58.226, 67.271, -157.924
59.073, 67.291, -157.588
59.932, 67.434, -157.330
60.804, 67.552, -157.616
61.688, 67.567, -157.397
62.586, 67.634, -156.998
63.496, 67.528, -157.008
64.420, 67.440, -155.578
65.357, 67.454, -156.172
66.307, 67.128, -155.803
67.272, 67.406, -156.432
68.250, 66.714, -161.951
69.243, 65.777, -153.579
70.250, 67.337, -150.870
71.272, 67.532, -155.963
72.309, 67.670, -154.479
73.360, 67.985, -155.509
74.427, 68.039, -154.376
75.510, 68.281, -154.051
76.608, 68.339, -153.715
77.723, 68.459, -153.750
78.853, 68.521, -154.051
80.000, 68.628, -154.379
81.164, 68.786, -154.831
82.344, 68.952, -155.442
83.542, 69.105, -156.016
84.757, 69.235, -156.479
85.990, 69.357, -157.077
87.241, 69.451, -157.761
88.510, 69.541, -158.625
89.797, 69.609, -159.546
91.103, 69.694, -160.363
92.428, 69.752, -161.376
93.773, 69.810, -161.950
95.137, 69.866, -162.936
96.520, 69.917, -163.529
97.924, 69.947, -164.811
99.349, 69.941, -165.364
100.794, 69.963, -166.291
102.260, 69.972, -166.909
103.747, 69.969, -167.693
105.256, 69.975, -168.266
106.787, 69.917, -169.191
108.340, 69.887, -169.014
109.916, 69.920, -169.775
111.515, 69.922, -170.249
113.137, 69.928, -170.710
114.783, 69.974, -171.138
116.452, 70.011, -171.722
118.146, 70.024, -172.246
119.865, 70.045, -172.745
121.608, 70.038, -173.620
123.377, 70.044, -174.254
125.171, 70.046, -174.835
126.992, 70.054, -175.404
128.839, 70.056, -176.128
130.713, 70.046, -176.709
132.615, 70.034, -177.385
134.543, 70.034, -177.984
136.500, 70.018, -178.629
138.486, 70.011, -179.269
140.500, 69.987, -179.996
142.544, 69.957, 179.392
144.617, 69.941, 178.784
146.721, 69.903, 178.185
148.855, 69.877, 177.550
151.020, 69.839, 176.939
153.217, 69.804, 176.265
155.445, 69.760, 175.862
157.706, 69.726, 175.324
160.000, 69.651, 174.472
162.327, 69.625, 174.091
164.688, 69.579, 173.587
167.084, 69.531, 173.087
169.514, 69.487, 172.555
171.980, 69.439, 172.127
174.481, 69.393, 171.652
177.019, 69.345, 171.081
179.594, 69.304, 170.665
182.206, 69.241, 170.028
184.856, 69.164, 169.315
187.545, 69.094, 168.887
190.273, 69.021, 168.405
193.041, 68.950, 167.787
195.849, 68.847, 167.416
198.697, 68.763, 166.939
201.587, 68.666, 166.543
204.520, 68.571, 166.230
207.494, 68.475, 166.012
210.512, 68.371, 165.646
213.574, 68.281, 165.499
216.681, 68.163, 165.417
219.833, 68.049, 165.271
223.030, 67.961, 165.276
226.274, 67.856, 165.288
229.565, 67.779, 165.325
232.905, 67.706, 165.393
236.292, 67.634, 165.558
239.729, 67.571, 165.628
243.216, 67.525, 165.666
246.754, 67.496, 165.710
250.343, 67.448, 165.668
253.984, 67.420, 165.497
257.678, 67.340, 165.432
261.426, 67.326, 165.248
265.229, 67.274, 165.178
269.087, 67.179, 165.074
273.001, 67.234, 164.986
276.972, 67.047, 164.959
281.000, 67.003, 164.113
285.088, 66.888, 164.185
289.234, 66.808, 163.857
293.441, 66.759, 163.492
297.710, 66.662, 163.428
302.040, 66.536, 163.178
306.433, 66.419, 163.164
310.890, 66.290, 163.134
315.412, 66.149, 163.263
320.000, 66.032, 163.423
324.655, 65.897, 163.413
329.377, 65.778, 163.882
334.168, 65.634, 164.248
339.028, 65.536, 164.651
343.959, 65.439, 165.240
348.962, 65.322, 165.453
354.038, 65.220, 166.306
359.188, 65.101, 166.658
364.412, 65.004, 167.305
369.713, 64.904, 168.052
375.090, 64.839, 168.916
380.546, 64.755, 169.564
386.081, 64.700, 170.423
391.697, 64.655, 171.295
397.395, 64.620, 171.868
403.175, 64.591, 172.907
409.039, 64.585, 173.792
414.989, 64.578, 174.532
421.025, 64.570, 175.468
427.149, 64.622, 176.450
433.362, 64.705, 177.255
439.665, 64.784, 177.661
446.060, 64.838, 177.823
452.548, 64.879, 177.933
459.131, 64.871, 178.139
465.809, 64.877, 178.445
472.584, 64.872, 178.797
479.458, 64.885, 179.250
486.432, 64.899, 179.654
493.507, 64.906, -179.961
500.686, 64.931, -179.520
507.968, 64.961, -179.143
515.357, 64.994, -178.746
522.853, 65.019, -178.421
530.458, 65.060, -178.029
538.174, 65.093, -177.786
546.002, 65.152, -177.517
553.943, 65.186, -177.252
562.001, 65.231, -177.067
570.175, 65.278, -176.949
578.469, 65.306, -176.860
586.883, 65.357, -176.713
595.419, 65.399, -176.683
604.080, 65.435, -176.687
612.866, 65.465, -176.677
621.780, 65.494, -176.758
630.824, 65.517, -176.822
640.000, 65.527, -176.867
649.309, 65.543, -176.860
658.753, 65.556, -176.944
668.335, 65.567, -177.018
678.056, 65.577, -177.122
687.919, 65.577, -177.247
697.925, 65.572, -177.385
708.076, 65.558, -177.534
718.376, 65.568, -177.784
728.825, 65.517, -177.761
739.426, 65.488, -177.917
750.181, 65.446, -178.109
761.093, 65.404, -178.109
772.163, 65.355, -178.168
783.394, 65.292, -178.172
794.789, 65.233, -178.115
806.349, 65.162, -178.124
818.078, 65.067, -178.049
829.977, 64.918, -177.565
842.050, 64.922, -176.806
854.297, 64.871, -176.578
866.724, 64.798, -176.158
879.330, 64.762, -175.625
892.120, 64.742, -175.116
905.097, 64.719, -174.778
918.262, 64.667, -174.507
931.618, 64.590, -174.040
945.169, 64.526, -173.324
958.917, 64.507, -172.548
972.864, 64.500, -172.074
987.015, 64.455, -171.664
1001.371, 64.374, -171.105
1015.937, 64.293, -170.280
1030.714, 64.217, -169.213
1045.706, 64.160, -167.875
1060.916, 64.142, -166.289
1076.347, 64.199, -164.532
1092.003, 64.332, -163.029
1107.887, 64.485, -161.921
1124.001, 64.634, -161.006
1140.350, 64.799, -160.100
1156.937, 65.003, -159.520
1173.765, 65.192, -159.329
1190.838, 65.337, -159.396
1208.159, 65.440, -159.390
1225.732, 65.530, -159.242
1243.561, 65.629, -158.978
1261.649, 65.762, -158.692
1280.000, 65.922, -158.729
1298.618, 66.074, -159.064
1317.507, 66.169, -159.578
1336.670, 66.236, -160.080
1356.113, 66.286, -160.556
1375.838, 66.320, -160.983
1395.850, 66.344, -161.461
1416.153, 66.333, -161.934
1436.751, 66.291, -162.187
1457.649, 66.261, -162.562
1478.851, 66.192, -162.741
1500.362, 66.118, -162.588
1522.185, 66.017, -162.412
1544.326, 65.947, -161.899
1566.789, 65.902, -161.281
1589.578, 65.890, -160.430
1612.699, 65.933, -159.808
1636.156, 65.964, -159.533
1659.955, 65.947, -159.301
1684.099, 65.900, -158.766
1708.595, 65.870, -157.911
1733.447, 65.895, -156.942
1758.661, 65.956, -156.134
1784.241, 66.024, -155.547
1810.193, 66.082, -155.001
1836.523, 66.135, -154.481
1863.236, 66.194, -153.937
1890.338, 66.262, -153.579
1917.833, 66.309, -153.406
1945.729, 66.301, -153.263
1974.030, 66.221, -152.922
2002.743, 66.101, -151.824
2031.873, 66.081, -149.931
2061.428, 66.175, -148.148
2091.412, 66.310, -146.626
2121.832, 66.479, -145.302
2152.695, 66.631, -144.174
2184.007, 66.782, -143.023
2215.774, 66.956, -141.703
2248.003, 67.177, -140.268
2280.701, 67.454, -139.004
2313.874, 67.777, -137.949
2347.530, 68.129, -137.230
2381.676, 68.494, -136.922
2416.318, 68.857, -136.995
2451.464, 69.192, -137.358
2487.122, 69.488, -137.822
2523.298, 69.791, -138.264
2560.000, 70.114, -138.991
2597.236, 70.409, -140.125
2635.014, 70.649, -141.493
2673.341, 70.824, -142.890
2712.226, 70.947, -144.210
2751.676, 71.009, -145.212
2791.700, 71.067, -145.505
2832.306, 71.221, -145.406
2873.503, 71.469, -145.552
2915.299, 71.755, -146.163
2957.703, 72.040, -147.183
3000.724, 72.309, -148.608
3044.370, 72.544, -150.123
3088.652, 72.770, -151.894
3133.577, 72.972, -153.993
3179.156, 73.112, -156.343
3225.398, 73.191, -158.658
3272.312, 73.238, -160.921
3319.909, 73.255, -163.282
3368.198, 73.212, -165.714
3417.190, 73.090, -168.019
3466.894, 72.896, -169.942
3517.321, 72.666, -171.277
3568.482, 72.439, -171.890
3620.387, 72.291, -171.940
3673.046, 72.241, -172.036
3726.472, 72.224, -172.310
3780.675, 72.240, -172.698
3835.666, 72.281, -173.315
3891.457, 72.325, -174.202
3948.060, 72.360, -175.275
4005.486, 72.389, -176.575
4063.747, 72.392, -178.144
4122.855, 72.346, -179.913
4182.824, 72.237, 178.316
4243.664, 72.073, 176.650
4305.390, 71.855, 175.137
4368.013, 71.573, 174.105
4431.547, 71.301, 173.866
4496.005, 71.128, 173.946
4561.401, 71.033, 173.749
4627.749, 70.920, 173.102
4695.061, 70.753, 172.343
4763.352, 70.542, 171.778
4832.637, 70.315, 171.482
4902.929, 70.078, 171.385
4974.244, 69.820, 171.534
5046.596, 69.558, 172.151
5120.000, 69.324, 173.227
5194.472, 69.171, 174.606
5270.027, 69.068, 176.015
5346.682, 68.982, 177.586
5424.451, 68.968, 179.475
5503.352, 69.056, -178.520
5583.399, 69.265, -176.707
5664.612, 69.575, -175.393
5747.006, 69.953, -174.807
5830.598, 70.343, -175.125
5915.406, 70.688, -176.033
6001.447, 71.006, -177.159
6088.740, 71.339, -178.538
6177.303, 71.717, 179.553
6267.154, 72.121, 176.693
6358.312, 72.464, 172.473
6450.796, 72.636, 167.094
6544.625, 72.562, 161.187
6639.818, 72.246, 155.447
6736.397, 71.737, 150.198
6834.380, 71.024, 145.547
6933.789, 70.097, 142.491
7034.643, 69.176, 141.379
7136.964, 68.328, 141.477
7240.773, 67.574, 142.522
7346.093, 66.913, 144.185
7452.944, 66.358, 146.350
7561.350, 65.901, 148.871
7671.332, 65.547, 151.634
7782.915, 65.297, 154.552
7896.120, 65.169, 157.533
8010.971, 65.176, 160.466
8127.493, 65.322, 162.992
8245.711, 65.624, 164.929
8365.647, 66.074, 165.763
8487.328, 66.620, 164.988
8610.779, 67.164, 162.199
8736.026, 67.619, 157.947
8863.095, 68.140, 147.627
8992.011, 67.413, 137.966
9122.803, 66.267, 129.672
9255.497, 64.638, 123.964
9390.121, 62.748, 121.953
9526.704, 60.843, 123.806
9665.273, 59.100, 129.202
9805.857, 57.676, 137.809
9948.487, 56.762, 148.521
10093.191, 56.525, 160.040
10240.000, 56.954, 169.634
10388.944, 57.688, 175.343
10540.055, 58.374, 177.445
10693.363, 58.753, 177.386
10848.902, 58.767, 176.940
11006.703, 58.513, 177.735
11166.799, 58.278, -179.428
11329.224, 58.226, -175.417
11494.012, 58.482, -170.796
11661.195, 59.083, -167.096
11830.812, 59.944, -165.135
12002.895, 60.958, -165.674
12177.480, 62.004, -169.269
12354.606, 62.931, -175.864
12534.309, 63.615, 174.307
12716.624, 63.776, 161.220
12901.592, 63.126, 146.765
13089.250, 61.678, 133.579
13279.637, 59.607, 123.557
13472.794, 57.197, 117.845
13668.760, 54.832, 116.091
13867.577, 52.653, 116.464
14069.285, 50.673, 117.692
14273.928, 48.802, 118.434
14481.547, 46.936, 116.716
14692.186, 44.669, 110.343
14905.889, 41.618, 94.776
15122.700, 38.456, 59.779
15342.664, 39.544, 9.635
15565.829, 44.006, -20.308
15792.239, 47.896, -39.016
16021.942, 50.721, -57.260
16254.986, 51.993, -75.990
16491.422, 51.214, -88.830
16731.295, 50.847, -81.723
16974.656, 53.119, -84.268
17221.559, 53.934, -96.510
17472.053, 53.743, -106.797
17726.189, 53.269, -115.491
17984.021, 52.314, -124.890
18245.605, 50.621, -130.853
18510.994, 48.026, -132.246
18780.242, 45.395, -117.840
19053.408, 45.842, -98.536
19330.547, 47.101, -93.417
19611.715, 47.747, -93.299
19896.975, 47.946, -93.964
