* Measurement data measured by REW V5.19
* Source: ASIO MOTU M Series, In 1
* Format: 1M Log Swept Sine, 4 sweeps at -10.0 dBFS  With no timing reference
* Dated: 4 Sep, 2020 7:24:59 PM
* REW Settings:
*  C-weighting compensation: Off
*  Target level: 75.0 dB
* Note: ; 
* Measurement: Sep 4 19:24:59
* Smoothing: None
* Frequency Step: 1/48 octave
* Start Frequency: 10.0 Hz
*
* Freq(Hz), SPL(dB), Phase(degrees)
10.145, 62.336, -67.148
10.293, 62.444, -68.572
10.443, 62.544, -69.868
10.595, 62.642, -71.146
10.749, 62.739, -72.402
10.905, 62.833, -73.636
11.064, 62.927, -74.854
11.225, 63.021, -76.053
11.388, 63.114, -77.243
11.554, 63.208, -78.425
11.722, 63.300, -79.604
11.892, 63.392, -80.786
12.065, 63.481, -81.965
12.241, 63.566, -83.143
12.419, 63.647, -84.311
12.599, 63.723, -85.457
12.782, 63.795, -86.575
12.968, 63.862, -87.644
13.157, 63.928, -88.662
13.348, 63.995, -89.616
13.543, 64.065, -90.516
13.740, 64.143, -91.368
13.939, 64.230, -92.199
14.142, 64.327, -93.029
14.348, 64.432, -93.898
14.557, 64.545, -94.823
14.768, 64.657, -95.827
14.983, 64.767, -96.908
15.201, 64.866, -98.053
15.422, 64.953, -99.233
15.646, 65.025, -100.423
15.874, 65.084, -101.571
16.105, 65.132, -102.664
16.339, 65.175, -103.677
16.577, 65.219, -104.626
16.818, 65.265, -105.521
17.063, 65.318, -106.402
17.311, 65.375, -107.295
17.563, 65.433, -108.216
17.818, 65.487, -109.170
18.077, 65.535, -110.135
18.340, 65.576, -111.094
18.607, 65.611, -112.019
18.877, 65.645, -112.899
19.152, 65.680, -113.743
19.431, 65.719, -114.566
19.713, 65.763, -115.394
20.000, 65.809, -116.248
20.291, 65.854, -117.130
20.586, 65.895, -118.035
20.885, 65.929, -118.944
21.189, 65.955, -119.834
21.497, 65.977, -120.681
21.810, 65.996, -121.473
22.127, 66.017, -122.208
22.449, 66.042, -122.902
22.776, 66.075, -123.586
23.107, 66.112, -124.298
23.443, 66.146, -125.062
23.784, 66.169, -125.862
24.130, 66.175, -126.630
24.481, 66.168, -127.281
24.837, 66.160, -127.758
25.198, 66.172, -128.093
25.565, 66.214, -128.408
25.937, 66.280, -128.849
26.314, 66.350, -129.490
26.697, 66.404, -130.284
27.085, 66.433, -131.103
27.479, 66.449, -131.842
27.879, 66.468, -132.501
28.284, 66.499, -133.173
28.696, 66.530, -133.939
29.113, 66.547, -134.770
29.537, 66.545, -135.543
29.966, 66.539, -136.172
30.402, 66.549, -136.708
30.844, 66.577, -137.293
31.293, 66.602, -138.000
31.748, 66.605, -138.737
32.210, 66.589, -139.331
32.678, 66.581, -139.726
33.154, 66.602, -140.065
33.636, 66.644, -140.558
34.125, 66.674, -141.259
34.621, 66.668, -142.023
35.125, 66.635, -142.657
35.636, 66.598, -143.096
36.154, 66.578, -143.434
36.680, 66.575, -143.813
37.214, 66.572, -144.286
37.755, 66.556, -144.788
38.304, 66.529, -145.217
38.861, 66.507, -145.554
39.427, 66.492, -145.873
40.000, 66.473, -146.189
40.582, 66.447, -146.416
41.172, 66.427, -146.537
41.771, 66.415, -146.655
42.379, 66.392, -146.758
42.995, 66.367, -146.727
43.620, 66.362, -146.674
44.255, 66.352, -146.750
44.898, 66.317, -146.712
45.552, 66.308, -146.427
46.214, 66.343, -146.226
46.886, 66.379, -146.140
47.568, 66.439, -145.864
48.260, 66.563, -145.739
48.962, 66.680, -145.876
49.674, 66.815, -145.745
50.397, 67.061, -145.977
51.130, 67.261, -147.423
51.874, 67.248, -148.961
52.628, 67.165, -149.481
53.394, 67.152, -149.636
54.170, 67.162, -149.990
54.958, 67.173, -150.469
55.758, 67.187, -151.100
56.569, 67.206, -151.938
57.391, 67.190, -153.074
58.226, 67.086, -153.932
59.073, 66.989, -153.824
59.932, 67.039, -153.363
60.804, 67.129, -153.720
61.688, 67.068, -154.108
62.586, 67.020, -153.647
63.496, 67.024, -153.622
64.420, 66.990, -153.784
65.357, 66.921, -154.608
66.307, 66.736, -154.633
67.272, 66.857, -155.255
68.250, 66.480, -157.885
69.243, 66.054, -154.071
70.250, 66.612, -152.673
71.272, 66.561, -153.599
72.309, 66.677, -151.705
73.360, 66.792, -151.653
74.427, 66.825, -150.308
75.510, 66.961, -149.766
76.608, 67.027, -149.212
77.723, 67.132, -148.819
78.853, 67.277, -148.463
80.000, 67.436, -148.556
81.164, 67.574, -148.435
82.344, 67.752, -148.403
83.542, 67.910, -148.501
84.757, 68.066, -148.754
85.990, 68.207, -149.048
87.241, 68.363, -149.662
88.510, 68.497, -150.332
89.797, 68.604, -151.179
91.103, 68.704, -151.708
92.428, 68.793, -152.300
93.773, 68.891, -152.836
95.137, 68.995, -153.397
96.520, 69.053, -154.430
97.924, 69.118, -154.858
99.349, 69.176, -155.764
100.794, 69.235, -156.388
102.260, 69.273, -157.001
103.747, 69.341, -157.738
105.256, 69.381, -158.426
106.787, 69.387, -159.059
108.340, 69.460, -159.648
109.916, 69.438, -160.101
111.515, 69.527, -160.777
113.137, 69.516, -161.379
114.783, 69.584, -162.054
116.452, 69.586, -162.814
118.146, 69.619, -163.447
119.865, 69.636, -164.173
121.608, 69.638, -164.845
123.377, 69.639, -165.538
125.171, 69.630, -166.168
126.992, 69.618, -166.774
128.839, 69.624, -167.332
130.713, 69.605, -167.839
132.615, 69.600, -168.317
134.543, 69.584, -168.814
136.500, 69.601, -169.395
138.486, 69.589, -169.859
140.500, 69.604, -170.387
142.544, 69.596, -170.865
144.617, 69.589, -171.496
146.721, 69.580, -172.082
148.855, 69.562, -172.615
151.020, 69.540, -173.239
153.217, 69.510, -173.644
155.445, 69.480, -174.371
157.706, 69.497, -174.764
160.000, 69.393, -175.679
162.327, 69.385, -176.012
164.688, 69.344, -176.384
167.084, 69.291, -176.815
169.514, 69.237, -177.283
171.980, 69.188, -177.666
174.481, 69.134, -178.011
177.019, 69.083, -178.399
179.594, 69.012, -178.680
182.206, 68.971, -179.023
184.856, 68.979, -179.314
187.545, 68.898, -179.585
190.273, 68.847, -179.836
193.041, 68.804, 179.649
195.849, 68.739, 179.400
198.697, 68.652, 179.014
201.587, 68.591, 178.768
204.520, 68.516, 178.666
207.494, 68.413, 178.394
210.512, 68.336, 178.283
213.574, 68.255, 178.484
216.681, 68.176, 178.545
219.833, 68.101, 178.602
223.030, 68.041, 178.769
226.274, 67.993, 179.012
229.565, 67.951, 179.133
232.905, 67.923, 179.315
236.292, 67.891, 179.508
239.729, 67.865, 179.593
243.216, 67.840, 179.903
246.754, 67.803, 179.934
250.343, 67.810, 179.923
253.984, 67.778, -179.950
257.678, 67.711, -179.951
261.426, 67.673, -179.612
265.229, 67.704, -179.323
269.087, 67.658, -179.504
273.001, 67.712, -179.287
276.972, 67.621, -179.200
281.000, 67.653, -179.393
285.088, 67.613, -179.583
289.234, 67.627, -179.400
293.441, 67.569, -178.960
297.710, 67.566, -178.900
302.040, 67.500, -178.845
306.433, 67.475, -178.630
310.890, 67.462, -178.380
315.412, 67.466, -178.089
320.000, 67.449, -177.927
324.655, 67.489, -177.814
329.377, 67.431, -177.725
334.168, 67.427, -177.626
339.028, 67.429, -177.394
343.959, 67.387, -177.173
348.962, 67.348, -176.948
354.038, 67.337, -176.657
359.188, 67.331, -176.365
364.412, 67.315, -175.915
369.713, 67.321, -175.464
375.090, 67.331, -174.935
380.546, 67.347, -174.517
386.081, 67.389, -174.092
391.697, 67.426, -173.782
397.395, 67.443, -173.405
403.175, 67.471, -172.995
409.039, 67.512, -172.464
414.989, 67.566, -171.854
421.025, 67.639, -171.223
427.149, 67.762, -170.592
433.362, 67.945, -170.208
439.665, 68.122, -170.314
446.060, 68.272, -170.856
452.548, 68.357, -171.348
459.131, 68.409, -171.841
465.809, 68.448, -172.131
472.584, 68.490, -172.310
479.458, 68.537, -172.391
486.432, 68.598, -172.534
493.507, 68.682, -172.557
500.686, 68.777, -172.730
507.968, 68.868, -173.115
515.357, 68.948, -173.670
522.853, 69.002, -174.228
530.458, 69.048, -174.723
538.174, 69.081, -175.150
546.002, 69.118, -175.571
553.943, 69.157, -176.047
562.001, 69.191, -176.475
570.175, 69.227, -176.920
578.469, 69.254, -177.395
586.883, 69.292, -177.876
595.419, 69.320, -178.362
604.080, 69.348, -178.857
612.866, 69.377, -179.397
621.780, 69.398, -179.943
630.824, 69.426, 179.454
640.000, 69.439, 178.813
649.309, 69.445, 178.146
658.753, 69.439, 177.491
668.335, 69.430, 176.857
678.056, 69.419, 176.251
687.919, 69.407, 175.627
697.925, 69.390, 175.004
708.076, 69.367, 174.336
718.376, 69.332, 173.625
728.825, 69.307, 172.973
739.426, 69.260, 172.313
750.181, 69.207, 171.623
761.093, 69.152, 171.004
772.163, 69.089, 170.360
783.394, 69.017, 169.742
794.789, 68.938, 169.134
806.349, 68.852, 168.588
818.078, 68.759, 168.027
829.977, 68.658, 167.510
842.050, 68.555, 167.028
854.297, 68.440, 166.605
866.724, 68.324, 166.220
879.330, 68.190, 165.925
892.120, 68.057, 165.720
905.097, 67.927, 165.651
918.262, 67.820, 165.655
931.618, 67.732, 165.503
945.169, 67.616, 165.189
958.917, 67.468, 164.951
972.864, 67.299, 164.874
987.015, 67.125, 164.979
1001.371, 66.953, 165.272
1015.937, 66.783, 165.681
1030.714, 66.611, 166.246
1045.706, 66.443, 167.058
1060.916, 66.296, 168.221
1076.347, 66.209, 169.707
1092.003, 66.225, 171.146
1107.887, 66.291, 172.079
1124.001, 66.340, 172.809
1140.350, 66.420, 173.502
1156.937, 66.531, 173.809
1173.765, 66.627, 173.711
1190.838, 66.687, 173.362
1208.159, 66.707, 172.932
1225.732, 66.694, 172.491
1243.561, 66.655, 172.089
1261.649, 66.595, 171.724
1280.000, 66.519, 171.434
1298.618, 66.429, 171.149
1317.507, 66.323, 171.048
1336.670, 66.202, 170.957
1356.113, 66.070, 170.971
1375.838, 65.916, 171.153
1395.850, 65.744, 171.592
1416.153, 65.571, 172.395
1436.751, 65.431, 173.645
1457.649, 65.402, 175.568
1478.851, 65.567, 176.765
1500.362, 65.716, 176.686
1522.185, 65.719, 176.033
1544.326, 65.634, 175.616
1566.789, 65.491, 175.498
1589.578, 65.319, 175.911
1612.699, 65.154, 176.854
1636.156, 65.073, 178.243
1659.955, 65.066, 179.502
1684.099, 65.106, -179.533
1708.595, 65.153, -178.888
1733.447, 65.158, -178.426
1758.661, 65.176, -177.808
1784.241, 65.199, -177.392
1810.193, 65.202, -177.153
1836.523, 65.177, -176.877
1863.236, 65.136, -176.529
1890.338, 65.073, -176.027
1917.833, 65.012, -175.460
1945.729, 64.946, -174.673
1974.030, 64.906, -173.739
2002.743, 64.874, -172.838
2031.873, 64.845, -171.931
2061.428, 64.788, -170.862
2091.412, 64.757, -169.368
2121.832, 64.809, -167.741
2152.695, 64.911, -166.504
2184.007, 64.998, -165.578
2215.774, 65.033, -164.579
2248.003, 65.070, -163.162
2280.701, 65.182, -161.487
2313.874, 65.382, -159.960
2347.530, 65.608, -158.932
2381.676, 65.811, -158.240
2416.318, 65.991, -157.403
2451.464, 66.223, -156.477
2487.122, 66.504, -155.864
2523.298, 66.791, -155.687
2560.000, 67.073, -155.758
2597.236, 67.358, -156.172
2635.014, 67.613, -157.055
2673.341, 67.783, -158.287
2712.226, 67.861, -159.374
2751.676, 67.897, -160.088
2791.700, 67.935, -160.361
2832.306, 68.028, -160.509
2873.503, 68.146, -160.932
2915.299, 68.244, -161.589
2957.703, 68.306, -162.339
3000.724, 68.329, -163.172
3044.370, 68.259, -163.703
3088.652, 68.178, -163.504
3133.577, 68.182, -162.681
3179.156, 68.307, -161.888
3225.398, 68.507, -161.583
3272.312, 68.707, -161.940
3319.909, 68.858, -162.618
3368.198, 68.952, -163.276
3417.190, 69.049, -163.678
3466.894, 69.184, -164.223
3517.321, 69.305, -165.122
3568.482, 69.380, -166.158
3620.387, 69.419, -167.128
3673.046, 69.457, -167.939
3726.472, 69.495, -168.965
3780.675, 69.479, -170.002
3835.666, 69.437, -170.790
3891.457, 69.403, -171.433
3948.060, 69.366, -172.042
4005.486, 69.311, -172.501
4063.747, 69.283, -172.861
4122.855, 69.284, -173.331
4182.824, 69.255, -174.099
4243.664, 69.154, -174.739
4305.390, 69.033, -174.832
4368.013, 68.976, -174.494
4431.547, 69.005, -174.288
4496.005, 69.065, -174.598
4561.401, 69.083, -175.376
4627.749, 69.028, -176.255
4695.061, 68.907, -176.879
4763.352, 68.764, -177.174
4832.637, 68.617, -177.149
4902.929, 68.470, -176.918
4974.244, 68.322, -176.348
5046.596, 68.204, -175.415
5120.000, 68.137, -174.246
5194.472, 68.123, -173.005
5270.027, 68.136, -171.851
5346.682, 68.171, -170.577
5424.451, 68.242, -169.178
5503.352, 68.356, -167.693
5583.399, 68.532, -166.105
5664.612, 68.780, -164.596
5747.006, 69.091, -163.266
5830.598, 69.463, -162.003
5915.406, 69.929, -160.993
6001.447, 70.494, -160.446
6088.740, 71.152, -160.650
6177.303, 71.866, -161.850
6267.154, 72.597, -164.121
6358.312, 73.329, -167.538
6450.796, 74.025, -172.406
6544.625, 74.585, -178.918
6639.818, 74.873, 173.263
6736.397, 74.814, 165.093
6834.380, 74.436, 157.617
6933.789, 73.848, 151.453
7034.643, 73.140, 146.736
7136.964, 72.416, 143.530
7240.773, 71.759, 141.386
7346.093, 71.178, 139.806
7452.944, 70.666, 138.583
7561.350, 70.211, 137.475
7671.332, 69.784, 136.461
7782.915, 69.388, 135.676
7896.120, 69.070, 135.044
8010.971, 68.845, 134.161
8127.493, 68.684, 132.676
8245.711, 68.538, 130.298
8365.647, 68.325, 126.995
8487.328, 67.988, 123.131
8610.779, 67.556, 119.108
8736.026, 67.104, 115.088
8863.095, 66.473, 105.713
8992.011, 64.982, 101.138
9122.803, 63.532, 97.869
9255.497, 62.008, 95.389
9390.121, 60.254, 93.325
9526.704, 58.121, 92.662
9665.273, 55.551, 95.106
9805.857, 52.573, 103.033
9948.487, 49.464, 121.324
10093.191, 48.002, 154.804
10240.000, 50.307, -174.949
10388.944, 53.774, -163.833
10540.055, 56.584, -166.036
10693.363, 58.051, -175.742
10848.902, 58.018, 174.265
11006.703, 57.046, 168.517
11166.799, 55.583, 167.772
11329.224, 53.681, 172.979
11494.012, 51.754, -167.099
11661.195, 54.259, -137.085
11830.812, 58.214, -138.124
12002.895, 59.906, -147.022
12177.480, 60.741, -154.140
12354.606, 61.311, -160.474
12534.309, 61.666, -167.091
12716.624, 61.748, -173.955
12901.592, 61.619, 179.620
13089.250, 61.350, 173.193
13279.637, 60.832, 166.314
13472.794, 59.933, 160.117
13668.760, 58.826, 156.262
13867.577, 57.785, 154.098
14069.285, 56.834, 152.351
14273.928, 55.993, 149.839
14481.547, 54.990, 145.361
14692.186, 53.517, 138.521
14905.889, 50.869, 128.715
15122.700, 45.025, 121.206
15342.664, 36.874, -167.310
15565.829, 44.310, -138.066
15792.239, 46.617, -138.793
16021.942, 47.311, -138.291
16254.986, 47.482, -136.139
16491.422, 47.180, -132.153
16731.295, 46.343, -121.330
16974.656, 48.037, -94.029
17221.559, 53.438, -96.923
17472.053, 54.890, -121.695
17726.189, 53.434, -139.346
17984.021, 50.692, -141.642
18245.605, 49.198, -128.213
18510.994, 50.267, -115.750
18780.242, 51.894, -116.170
19053.408, 52.652, -122.977
19330.547, 52.575, -130.723
19611.715, 51.893, -137.356
19896.975, 50.725, -141.014
