* Measurement data measured by REW V5.19
* Source: ASIO MOTU M Series, In 1
* Format: 1M Log Swept Sine, 4 sweeps at -10.0 dBFS  With no timing reference
* Dated: 4 Sep, 2020 7:27:10 PM
* REW Settings:
*  C-weighting compensation: Off
*  Target level: 75.0 dB
* Note: ; 
* Measurement: Sep 4 19:27:10
* Smoothing: None
* Frequency Step: 1/48 octave
* Start Frequency: 10.0 Hz
*
* Freq(Hz), SPL(dB), Phase(degrees)
10.145, 64.516, -75.541
10.293, 64.605, -76.929
10.443, 64.689, -78.185
10.595, 64.771, -79.423
10.749, 64.853, -80.644
10.905, 64.934, -81.848
11.064, 65.014, -83.047
11.225, 65.094, -84.238
11.388, 65.173, -85.429
11.554, 65.250, -86.624
11.722, 65.325, -87.819
11.892, 65.396, -89.015
12.065, 65.463, -90.207
12.241, 65.526, -91.386
12.419, 65.584, -92.549
12.599, 65.639, -93.684
12.782, 65.690, -94.789
12.968, 65.740, -95.857
13.157, 65.789, -96.891
13.348, 65.839, -97.893
13.543, 65.891, -98.868
13.740, 65.944, -99.825
13.939, 66.000, -100.766
14.142, 66.058, -101.700
14.348, 66.117, -102.626
14.557, 66.177, -103.545
14.768, 66.238, -104.454
14.983, 66.302, -105.355
15.201, 66.368, -106.251
15.422, 66.438, -107.153
15.646, 66.513, -108.070
15.874, 66.589, -109.025
16.105, 66.667, -110.025
16.339, 66.742, -111.083
16.577, 66.810, -112.187
16.818, 66.868, -113.328
17.063, 66.914, -114.474
17.311, 66.949, -115.594
17.563, 66.974, -116.666
17.818, 66.994, -117.670
18.077, 67.014, -118.613
18.340, 67.037, -119.507
18.607, 67.064, -120.379
18.877, 67.095, -121.261
19.152, 67.126, -122.159
19.431, 67.155, -123.077
19.713, 67.178, -124.001
20.000, 67.194, -124.904
20.291, 67.206, -125.773
20.586, 67.216, -126.598
20.885, 67.226, -127.378
21.189, 67.238, -128.123
21.497, 67.253, -128.841
21.810, 67.272, -129.541
22.127, 67.296, -130.237
22.449, 67.323, -130.944
22.776, 67.352, -131.683
23.107, 67.379, -132.463
23.443, 67.397, -133.272
23.784, 67.402, -134.066
24.130, 67.398, -134.792
24.481, 67.391, -135.415
24.837, 67.391, -135.948
25.198, 67.405, -136.453
25.565, 67.430, -137.003
25.937, 67.454, -137.630
26.314, 67.468, -138.301
26.697, 67.469, -138.938
27.085, 67.466, -139.482
27.479, 67.473, -139.947
27.879, 67.496, -140.413
28.284, 67.529, -140.969
28.696, 67.558, -141.633
29.113, 67.574, -142.346
29.537, 67.578, -143.027
29.966, 67.582, -143.652
30.402, 67.590, -144.269
30.844, 67.600, -144.932
31.293, 67.600, -145.629
31.748, 67.588, -146.286
32.210, 67.573, -146.858
32.678, 67.566, -147.391
33.154, 67.563, -147.966
33.636, 67.548, -148.585
34.125, 67.515, -149.137
34.621, 67.480, -149.538
35.125, 67.464, -149.866
35.636, 67.463, -150.301
36.154, 67.447, -150.887
36.680, 67.397, -151.439
37.214, 67.335, -151.762
37.755, 67.297, -151.910
38.304, 67.293, -152.135
38.861, 67.287, -152.561
39.427, 67.253, -153.031
40.000, 67.204, -153.341
40.582, 67.167, -153.515
41.172, 67.139, -153.710
41.771, 67.094, -153.889
42.379, 67.034, -153.838
42.995, 67.001, -153.534
43.620, 67.007, -153.280
44.255, 67.006, -153.286
44.898, 66.948, -153.208
45.552, 66.892, -152.600
46.214, 66.939, -151.823
46.886, 67.044, -151.713
47.568, 67.072, -151.932
48.260, 67.117, -151.438
48.962, 67.380, -151.280
49.674, 67.638, -153.173
50.397, 67.543, -155.433
51.130, 67.333, -155.130
51.874, 67.506, -153.746
52.628, 67.832, -154.457
53.394, 67.903, -156.052
54.170, 67.825, -156.512
54.958, 67.826, -156.164
55.758, 67.916, -156.340
56.569, 67.899, -157.429
57.391, 67.723, -158.026
58.226, 67.623, -158.105
59.073, 67.520, -158.659
59.932, 67.428, -158.396
60.804, 67.576, -158.463
61.688, 67.656, -159.803
62.586, 67.590, -160.333
63.496, 67.592, -159.787
64.420, 67.673, -159.631
65.357, 67.496, -159.591
66.307, 67.375, -157.549
67.272, 67.236, -157.914
68.250, 66.582, -153.835
69.243, 67.451, -149.427
70.250, 67.717, -156.073
71.272, 67.000, -156.304
72.309, 67.272, -155.462
73.360, 67.215, -156.642
74.427, 67.399, -155.600
75.510, 67.536, -155.856
76.608, 67.661, -154.668
77.723, 67.852, -154.233
78.853, 67.936, -153.912
80.000, 68.044, -153.509
81.164, 68.179, -153.685
82.344, 68.302, -153.874
83.542, 68.478, -154.211
84.757, 68.639, -154.647
85.990, 68.788, -154.975
87.241, 68.937, -155.351
88.510, 69.067, -155.910
89.797, 69.174, -156.685
91.103, 69.251, -157.482
92.428, 69.343, -158.098
93.773, 69.442, -158.940
95.137, 69.507, -159.518
96.520, 69.589, -160.233
97.924, 69.671, -160.949
99.349, 69.704, -162.105
100.794, 69.733, -162.711
102.260, 69.792, -163.635
103.747, 69.812, -164.436
105.256, 69.839, -165.272
106.787, 69.850, -165.899
108.340, 69.831, -166.903
109.916, 69.865, -167.150
111.515, 69.862, -168.112
113.137, 69.887, -168.605
114.783, 69.890, -169.308
116.452, 69.912, -169.938
118.146, 69.904, -170.704
119.865, 69.896, -171.412
121.608, 69.896, -172.090
123.377, 69.880, -172.869
125.171, 69.848, -173.612
126.992, 69.807, -174.213
128.839, 69.791, -174.789
130.713, 69.743, -175.314
132.615, 69.701, -175.893
134.543, 69.673, -176.460
136.500, 69.625, -176.961
138.486, 69.595, -177.437
140.500, 69.564, -177.906
142.544, 69.509, -178.431
144.617, 69.476, -178.934
146.721, 69.430, -179.367
148.855, 69.378, -179.817
151.020, 69.318, 179.710
153.217, 69.273, 179.252
155.445, 69.204, 178.802
157.706, 69.104, 178.543
160.000, 69.016, 178.475
162.327, 69.005, 177.848
164.688, 68.935, 177.591
167.084, 68.878, 177.461
169.514, 68.818, 177.372
171.980, 68.766, 177.208
174.481, 68.734, 177.073
177.019, 68.707, 176.858
179.594, 68.662, 176.679
182.206, 68.608, 176.388
184.856, 68.565, 176.177
187.545, 68.526, 175.642
190.273, 68.485, 175.462
193.041, 68.419, 175.101
195.849, 68.293, 174.958
198.697, 68.204, 174.707
201.587, 68.128, 174.603
204.520, 68.033, 174.541
207.494, 67.965, 174.627
210.512, 67.863, 174.693
213.574, 67.769, 174.932
216.681, 67.694, 175.114
219.833, 67.642, 175.333
223.030, 67.577, 175.651
226.274, 67.527, 175.897
229.565, 67.492, 176.162
232.905, 67.455, 176.455
236.292, 67.416, 176.822
239.729, 67.386, 177.081
243.216, 67.378, 177.201
246.754, 67.358, 177.490
250.343, 67.313, 177.655
253.984, 67.289, 177.669
257.678, 67.307, 177.931
261.426, 67.283, 178.455
265.229, 67.287, 178.365
269.087, 67.290, 178.179
273.001, 67.253, 178.805
276.972, 67.214, 178.389
281.000, 67.214, 178.902
285.088, 67.143, 178.461
289.234, 67.096, 178.810
293.441, 67.101, 179.068
297.710, 67.066, 179.219
302.040, 67.027, 179.441
306.433, 66.997, 179.819
310.890, 66.988, -179.780
315.412, 66.987, -179.458
320.000, 66.982, -179.040
324.655, 66.979, -179.000
329.377, 66.955, -178.764
334.168, 66.935, -178.387
339.028, 66.946, -178.114
343.959, 66.917, -177.860
348.962, 66.910, -177.508
354.038, 66.890, -176.996
359.188, 66.898, -176.570
364.412, 66.913, -176.273
369.713, 66.903, -175.762
375.090, 66.930, -175.257
380.546, 66.939, -174.744
386.081, 66.985, -174.284
391.697, 67.008, -173.895
397.395, 67.032, -173.416
403.175, 67.069, -172.876
409.039, 67.118, -172.303
414.989, 67.162, -171.648
421.025, 67.253, -170.845
427.149, 67.391, -170.101
433.362, 67.582, -169.574
439.665, 67.763, -169.641
446.060, 67.919, -169.996
452.548, 68.027, -170.423
459.131, 68.108, -170.727
465.809, 68.175, -170.996
472.584, 68.243, -171.187
479.458, 68.312, -171.255
486.432, 68.395, -171.388
493.507, 68.495, -171.475
500.686, 68.607, -171.760
507.968, 68.706, -172.213
515.357, 68.797, -172.794
522.853, 68.848, -173.365
530.458, 68.891, -173.848
538.174, 68.924, -174.277
546.002, 68.971, -174.690
553.943, 69.015, -175.027
562.001, 69.063, -175.389
570.175, 69.109, -175.787
578.469, 69.159, -176.149
586.883, 69.211, -176.596
595.419, 69.262, -177.052
604.080, 69.315, -177.541
612.866, 69.368, -178.074
621.780, 69.418, -178.661
630.824, 69.465, -179.283
640.000, 69.501, 179.985
649.309, 69.526, 179.261
658.753, 69.540, 178.531
668.335, 69.550, 177.822
678.056, 69.556, 177.115
687.919, 69.560, 176.394
697.925, 69.561, 175.647
708.076, 69.553, 174.872
718.376, 69.529, 174.178
728.825, 69.513, 173.301
739.426, 69.479, 172.534
750.181, 69.439, 171.763
761.093, 69.395, 171.037
772.163, 69.345, 170.276
783.394, 69.287, 169.527
794.789, 69.224, 168.770
806.349, 69.149, 168.046
818.078, 69.067, 167.306
829.977, 68.973, 166.584
842.050, 68.869, 165.912
854.297, 68.753, 165.276
866.724, 68.623, 164.684
879.330, 68.489, 164.230
892.120, 68.349, 163.882
905.097, 68.211, 163.668
918.262, 68.100, 163.528
931.618, 67.997, 163.212
945.169, 67.868, 162.783
958.917, 67.706, 162.432
972.864, 67.527, 162.276
987.015, 67.344, 162.305
1001.371, 67.160, 162.463
1015.937, 66.985, 162.864
1030.714, 66.809, 163.394
1045.706, 66.641, 164.176
1060.916, 66.505, 165.291
1076.347, 66.440, 166.713
1092.003, 66.489, 167.974
1107.887, 66.583, 168.577
1124.001, 66.658, 168.832
1140.350, 66.743, 168.915
1156.937, 66.822, 168.559
1173.765, 66.847, 167.852
1190.838, 66.813, 167.100
1208.159, 66.736, 166.435
1225.732, 66.627, 165.922
1243.561, 66.504, 165.523
1261.649, 66.369, 165.268
1280.000, 66.228, 165.121
1298.618, 66.074, 165.083
1317.507, 65.920, 165.092
1336.670, 65.753, 165.187
1356.113, 65.578, 165.398
1375.838, 65.382, 165.762
1395.850, 65.179, 166.424
1416.153, 64.974, 167.488
1436.751, 64.801, 169.165
1457.649, 64.782, 171.074
1478.851, 64.926, 172.292
1500.362, 65.036, 172.319
1522.185, 64.998, 171.845
1544.326, 64.885, 171.661
1566.789, 64.712, 171.825
1589.578, 64.519, 172.482
1612.699, 64.342, 173.711
1636.156, 64.245, 175.320
1659.955, 64.230, 176.821
1684.099, 64.255, 177.987
1708.595, 64.283, 178.803
1733.447, 64.274, 179.585
1758.661, 64.279, -179.564
1784.241, 64.288, -178.890
1810.193, 64.270, -178.276
1836.523, 64.236, -177.570
1863.236, 64.198, -176.731
1890.338, 64.171, -175.794
1917.833, 64.140, -174.779
1945.729, 64.121, -173.661
1974.030, 64.125, -172.520
2002.743, 64.144, -171.400
2031.873, 64.158, -170.384
2061.428, 64.142, -169.241
2091.412, 64.155, -167.632
2121.832, 64.247, -166.004
2152.695, 64.369, -164.778
2184.007, 64.471, -163.782
2215.774, 64.527, -162.711
2248.003, 64.585, -161.171
2280.701, 64.724, -159.353
2313.874, 64.952, -157.708
2347.530, 65.215, -156.495
2381.676, 65.474, -155.611
2416.318, 65.725, -154.695
2451.464, 66.027, -153.854
2487.122, 66.369, -153.478
2523.298, 66.695, -153.553
2560.000, 66.997, -153.869
2597.236, 67.296, -154.455
2635.014, 67.564, -155.484
2673.341, 67.742, -156.773
2712.226, 67.844, -157.793
2751.676, 67.924, -158.471
2791.700, 68.027, -158.857
2832.306, 68.180, -159.315
2873.503, 68.342, -160.184
2915.299, 68.460, -161.318
2957.703, 68.524, -162.634
3000.724, 68.510, -163.976
3044.370, 68.383, -164.754
3088.652, 68.257, -164.595
3133.577, 68.239, -163.770
3179.156, 68.346, -163.021
3225.398, 68.530, -162.797
3272.312, 68.703, -163.177
3319.909, 68.818, -163.816
3368.198, 68.889, -164.278
3417.190, 68.976, -164.421
3466.894, 69.127, -164.691
3517.321, 69.286, -165.395
3568.482, 69.411, -166.413
3620.387, 69.482, -167.443
3673.046, 69.549, -168.388
3726.472, 69.604, -169.550
3780.675, 69.592, -170.685
3835.666, 69.558, -171.464
3891.457, 69.541, -172.085
3948.060, 69.528, -172.698
4005.486, 69.507, -173.218
4063.747, 69.508, -173.589
4122.855, 69.539, -174.126
4182.824, 69.543, -174.940
4243.664, 69.484, -175.663
4305.390, 69.419, -175.832
4368.013, 69.430, -175.733
4431.547, 69.525, -175.937
4496.005, 69.631, -176.867
4561.401, 69.659, -178.248
4627.749, 69.577, -179.662
4695.061, 69.422, 179.351
4763.352, 69.252, 178.909
4832.637, 69.093, 178.829
4902.929, 68.954, 179.009
4974.244, 68.830, 179.464
5046.596, 68.749, -179.790
5120.000, 68.725, -178.922
5194.472, 68.747, -178.107
5270.027, 68.796, -177.398
5346.682, 68.858, -176.677
5424.451, 68.950, -175.883
5503.352, 69.082, -175.044
5583.399, 69.267, -174.194
5664.612, 69.510, -173.469
5747.006, 69.807, -172.924
5830.598, 70.162, -172.562
5915.406, 70.600, -172.553
6001.447, 71.117, -173.142
6088.740, 71.688, -174.654
6177.303, 72.259, -177.237
6267.154, 72.782, 179.165
6358.312, 73.228, 174.629
6450.796, 73.563, 169.140
6544.625, 73.715, 162.841
6639.818, 73.632, 156.196
6736.397, 73.307, 149.859
6834.380, 72.779, 144.503
6933.789, 72.157, 140.333
7034.643, 71.491, 137.361
7136.964, 70.868, 135.579
7240.773, 70.352, 134.508
7346.093, 69.947, 133.678
7452.944, 69.640, 132.826
7561.350, 69.418, 131.622
7671.332, 69.247, 129.897
7782.915, 69.107, 127.507
7896.120, 68.969, 124.183
8010.971, 68.758, 119.539
8127.493, 68.323, 113.632
8245.711, 67.529, 107.325
8365.647, 66.327, 102.063
8487.328, 64.871, 99.507
8610.779, 63.513, 100.106
8736.026, 62.563, 101.945
8863.095, 61.798, 99.326
8992.011, 60.281, 99.217
9122.803, 58.739, 102.286
9255.497, 57.611, 107.730
9390.121, 56.914, 112.409
9526.704, 56.260, 114.600
9665.273, 55.220, 115.354
9805.857, 53.714, 117.955
9948.487, 52.027, 124.024
10093.191, 50.375, 132.793
10240.000, 48.454, 145.830
10388.944, 46.880, 170.740
10540.055, 48.237, -157.432
10693.363, 51.918, -140.328
10848.902, 55.612, -139.002
11006.703, 58.236, -148.648
11166.799, 59.247, -162.848
11329.224, 58.719, -175.486
11494.012, 56.832, 178.292
11661.195, 54.635, -170.016
11830.812, 55.656, -152.677
12002.895, 57.501, -148.478
12177.480, 58.935, -149.591
12354.606, 60.087, -152.616
12534.309, 61.112, -157.753
12716.624, 61.888, -165.415
12901.592, 62.191, -174.944
13089.250, 61.977, 175.405
13279.637, 61.334, 166.888
13472.794, 60.394, 159.872
13668.760, 59.252, 154.759
13867.577, 58.073, 151.926
14069.285, 57.112, 150.413
14273.928, 56.412, 147.427
14481.547, 55.575, 140.774
14692.186, 54.157, 130.354
14905.889, 51.444, 114.333
15122.700, 45.313, 92.704
15342.664, 25.602, -10.561
15565.829, 42.159, -101.023
15792.239, 46.016, -109.949
16021.942, 47.756, -110.948
16254.986, 49.442, -109.619
16491.422, 50.548, -112.013
16731.295, 50.864, -110.205
16974.656, 52.513, -100.510
17221.559, 55.640, -108.038
17472.053, 56.402, -123.188
17726.189, 56.462, -135.374
17984.021, 55.789, -148.401
18245.605, 53.869, -158.325
18510.994, 51.171, -158.314
18780.242, 49.168, -143.709
19053.408, 50.281, -126.825
19330.547, 52.478, -128.553
19611.715, 52.884, -141.290
19896.975, 51.532, -148.775
