* Measurement data measured by REW V5.19
* Source: ASIO MOTU M Series, In 1
* Format: 1M Log Swept Sine, 4 sweeps at -10.0 dBFS  With no timing reference
* Dated: 4 Sep, 2020 7:29:01 PM
* REW Settings:
*  C-weighting compensation: Off
*  Target level: 75.0 dB
* Note: ; 
* Measurement: Sep 4 19:29:01
* Smoothing: None
* Frequency Step: 1/48 octave
* Start Frequency: 10.0 Hz
*
* Freq(Hz), SPL(dB), Phase(degrees)
10.145, 65.599, -86.100
10.293, 65.670, -87.415
10.443, 65.739, -88.617
10.595, 65.807, -89.810
10.749, 65.873, -90.998
10.905, 65.938, -92.179
11.064, 66.000, -93.356
11.225, 66.061, -94.528
11.388, 66.119, -95.695
11.554, 66.174, -96.856
11.722, 66.226, -98.008
11.892, 66.274, -99.151
12.065, 66.318, -100.281
12.241, 66.357, -101.393
12.419, 66.393, -102.483
12.599, 66.424, -103.540
12.782, 66.451, -104.561
12.968, 66.475, -105.530
13.157, 66.497, -106.446
13.348, 66.521, -107.298
13.543, 66.549, -108.092
13.740, 66.583, -108.830
13.939, 66.627, -109.536
14.142, 66.682, -110.223
14.348, 66.748, -110.934
14.557, 66.826, -111.684
14.768, 66.908, -112.512
14.983, 66.994, -113.420
15.201, 67.076, -114.417
15.422, 67.149, -115.479
15.646, 67.210, -116.591
15.874, 67.259, -117.702
16.105, 67.295, -118.795
16.339, 67.323, -119.834
16.577, 67.347, -120.817
16.818, 67.371, -121.745
17.063, 67.398, -122.644
17.311, 67.428, -123.538
17.563, 67.459, -124.444
17.818, 67.487, -125.374
18.077, 67.509, -126.307
18.340, 67.523, -127.225
18.607, 67.531, -128.098
18.877, 67.536, -128.910
19.152, 67.544, -129.672
19.431, 67.557, -130.403
19.713, 67.574, -131.139
20.000, 67.592, -131.904
20.291, 67.604, -132.691
20.586, 67.608, -133.470
20.885, 67.603, -134.200
21.189, 67.595, -134.844
21.497, 67.593, -135.407
21.810, 67.603, -135.935
22.127, 67.625, -136.489
22.449, 67.652, -137.116
22.776, 67.675, -137.822
23.107, 67.688, -138.570
23.443, 67.688, -139.302
23.784, 67.683, -139.980
24.130, 67.678, -140.617
24.481, 67.674, -141.251
24.837, 67.667, -141.901
25.198, 67.648, -142.528
25.565, 67.620, -143.052
25.937, 67.596, -143.413
26.314, 67.596, -143.649
26.697, 67.629, -143.898
27.085, 67.685, -144.320
27.479, 67.740, -144.972
27.879, 67.767, -145.766
28.284, 67.764, -146.532
28.696, 67.744, -147.147
29.113, 67.731, -147.623
29.537, 67.731, -148.072
29.966, 67.737, -148.582
30.402, 67.734, -149.136
30.844, 67.720, -149.662
31.293, 67.706, -150.138
31.748, 67.695, -150.614
32.210, 67.679, -151.131
32.678, 67.650, -151.636
33.154, 67.614, -152.037
33.636, 67.589, -152.338
34.125, 67.583, -152.666
34.621, 67.579, -153.119
35.125, 67.555, -153.625
35.636, 67.512, -154.007
36.154, 67.477, -154.208
36.680, 67.466, -154.379
37.214, 67.464, -154.665
37.755, 67.444, -155.004
38.304, 67.409, -155.227
38.861, 67.385, -155.333
39.427, 67.374, -155.489
40.000, 67.350, -155.705
40.582, 67.310, -155.786
41.172, 67.294, -155.714
41.771, 67.306, -155.757
42.379, 67.302, -155.976
42.995, 67.273, -156.044
43.620, 67.266, -155.896
44.255, 67.287, -155.831
44.898, 67.292, -155.814
45.552, 67.294, -155.610
46.214, 67.313, -155.420
46.886, 67.289, -155.208
47.568, 67.261, -154.295
48.260, 67.396, -153.142
48.962, 67.621, -153.220
49.674, 67.699, -154.188
50.397, 67.664, -154.596
51.130, 67.712, -154.622
51.874, 67.804, -155.401
52.628, 67.769, -156.535
53.394, 67.671, -156.599
54.170, 67.791, -156.032
54.958, 68.035, -157.150
55.758, 67.991, -159.156
56.569, 67.811, -159.186
57.391, 67.898, -158.736
58.226, 67.954, -159.767
59.073, 67.837, -160.306
59.932, 67.767, -160.199
60.804, 67.734, -159.822
61.688, 67.850, -159.504
62.586, 67.918, -160.417
63.496, 67.806, -160.531
64.420, 67.783, -159.827
65.357, 67.757, -159.113
66.307, 67.754, -158.447
67.272, 67.543, -157.814
68.250, 67.480, -154.584
69.243, 67.902, -154.058
70.250, 67.866, -156.180
71.272, 67.704, -156.006
72.309, 67.775, -155.946
73.360, 67.861, -155.959
74.427, 68.032, -155.899
75.510, 68.204, -155.761
76.608, 68.397, -155.661
77.723, 68.517, -155.516
78.853, 68.675, -155.182
80.000, 68.820, -155.447
81.164, 68.942, -155.728
82.344, 69.092, -156.224
83.542, 69.243, -156.868
84.757, 69.383, -157.525
85.990, 69.518, -158.146
87.241, 69.634, -158.820
88.510, 69.729, -159.594
89.797, 69.801, -160.442
91.103, 69.863, -161.255
92.428, 69.931, -162.154
93.773, 69.965, -162.762
95.137, 70.082, -163.414
96.520, 70.121, -164.438
97.924, 70.158, -165.185
99.349, 70.172, -166.005
100.794, 70.201, -166.740
102.260, 70.217, -167.452
103.747, 70.244, -168.286
105.256, 70.224, -169.173
106.787, 70.209, -169.609
108.340, 70.227, -170.467
109.916, 70.214, -170.715
111.515, 70.245, -171.311
113.137, 70.249, -171.826
114.783, 70.271, -172.365
116.452, 70.295, -173.075
118.146, 70.297, -173.901
119.865, 70.352, -174.586
121.608, 70.312, -175.234
123.377, 70.299, -175.837
125.171, 70.280, -176.597
126.992, 70.252, -177.170
128.839, 70.244, -177.849
130.713, 70.229, -178.423
132.615, 70.202, -179.085
134.543, 70.171, -179.641
136.500, 70.164, 179.814
138.486, 70.117, 179.185
140.500, 70.096, 178.649
142.544, 70.077, 178.223
144.617, 70.057, 177.711
146.721, 70.029, 177.121
148.855, 69.998, 176.592
151.020, 69.971, 176.005
153.217, 69.949, 175.441
155.445, 69.922, 174.774
157.706, 69.893, 174.260
160.000, 69.817, 173.864
162.327, 69.788, 172.960
164.688, 69.691, 172.443
167.084, 69.638, 171.965
169.514, 69.586, 171.590
171.980, 69.531, 171.190
174.481, 69.482, 170.731
177.019, 69.446, 170.174
179.594, 69.395, 169.658
182.206, 69.350, 169.110
184.856, 69.277, 168.526
187.545, 69.198, 167.999
190.273, 69.082, 167.625
193.041, 69.033, 167.286
195.849, 68.935, 166.833
198.697, 68.843, 166.341
201.587, 68.743, 165.972
204.520, 68.657, 165.682
207.494, 68.565, 165.230
210.512, 68.452, 165.171
213.574, 68.355, 165.009
216.681, 68.231, 164.757
219.833, 68.134, 164.635
223.030, 68.033, 164.734
226.274, 67.928, 164.696
229.565, 67.837, 164.779
232.905, 67.751, 164.820
236.292, 67.672, 164.940
239.729, 67.602, 165.000
243.216, 67.535, 165.190
246.754, 67.461, 165.198
250.343, 67.439, 165.587
253.984, 67.382, 165.454
257.678, 67.326, 165.490
261.426, 67.328, 165.790
265.229, 67.292, 165.502
269.087, 67.237, 165.501
273.001, 67.159, 164.920
276.972, 67.156, 164.888
281.000, 67.132, 164.522
285.088, 66.982, 164.356
289.234, 66.879, 164.207
293.441, 66.771, 164.200
297.710, 66.696, 163.876
302.040, 66.581, 163.736
306.433, 66.467, 163.762
310.890, 66.343, 163.727
315.412, 66.209, 163.784
320.000, 66.081, 164.086
324.655, 65.941, 164.089
329.377, 65.815, 164.390
334.168, 65.681, 164.815
339.028, 65.560, 165.511
343.959, 65.440, 165.984
348.962, 65.340, 166.526
354.038, 65.254, 167.036
359.188, 65.128, 167.772
364.412, 65.076, 168.521
369.713, 64.982, 169.257
375.090, 64.932, 169.935
380.546, 64.867, 170.759
386.081, 64.816, 171.546
391.697, 64.777, 172.355
397.395, 64.740, 173.197
403.175, 64.699, 174.002
409.039, 64.690, 174.949
414.989, 64.684, 175.702
421.025, 64.671, 176.676
427.149, 64.710, 177.671
433.362, 64.809, 178.539
439.665, 64.881, 178.964
446.060, 64.953, 179.151
452.548, 64.975, 179.404
459.131, 64.983, 179.541
465.809, 64.978, 179.853
472.584, 64.982, -179.758
479.458, 64.975, -179.227
486.432, 64.997, -178.753
493.507, 65.011, -178.268
500.686, 65.025, -177.845
507.968, 65.055, -177.328
515.357, 65.094, -176.952
522.853, 65.119, -176.553
530.458, 65.165, -176.114
538.174, 65.219, -175.720
546.002, 65.273, -175.466
553.943, 65.312, -175.126
562.001, 65.368, -174.830
570.175, 65.418, -174.611
578.469, 65.470, -174.515
586.883, 65.520, -174.314
595.419, 65.568, -174.197
604.080, 65.615, -174.128
612.866, 65.660, -174.041
621.780, 65.702, -174.077
630.824, 65.729, -174.095
640.000, 65.753, -174.082
649.309, 65.784, -174.081
658.753, 65.814, -174.086
668.335, 65.835, -174.152
678.056, 65.859, -174.235
687.919, 65.873, -174.364
697.925, 65.885, -174.498
708.076, 65.888, -174.675
718.376, 65.901, -174.678
728.825, 65.860, -174.946
739.426, 65.835, -175.062
750.181, 65.804, -175.221
761.093, 65.764, -175.190
772.163, 65.718, -175.203
783.394, 65.667, -175.118
794.789, 65.619, -175.031
806.349, 65.561, -174.938
818.078, 65.484, -174.809
829.977, 65.371, -174.278
842.050, 65.378, -173.622
854.297, 65.347, -173.337
866.724, 65.301, -172.983
879.330, 65.268, -172.326
892.120, 65.261, -171.775
905.097, 65.265, -171.415
918.262, 65.237, -171.101
931.618, 65.191, -170.617
945.169, 65.156, -169.928
958.917, 65.169, -169.217
972.864, 65.186, -168.805
987.015, 65.167, -168.448
1001.371, 65.121, -167.913
1015.937, 65.073, -167.151
1030.714, 65.034, -166.265
1045.706, 65.012, -165.144
1060.916, 65.023, -163.759
1076.347, 65.098, -162.257
1092.003, 65.246, -160.986
1107.887, 65.425, -160.137
1124.001, 65.585, -159.489
1140.350, 65.751, -158.877
1156.937, 65.956, -158.501
1173.765, 66.145, -158.588
1190.838, 66.290, -158.882
1208.159, 66.391, -159.168
1225.732, 66.468, -159.338
1243.561, 66.550, -159.343
1261.649, 66.659, -159.303
1280.000, 66.792, -159.523
1298.618, 66.896, -160.026
1317.507, 66.975, -160.705
1336.670, 67.012, -161.311
1356.113, 67.029, -161.862
1375.838, 67.028, -162.361
1395.850, 67.017, -162.834
1416.153, 66.978, -163.304
1436.751, 66.931, -163.767
1457.649, 66.845, -163.907
1478.851, 66.754, -163.977
1500.362, 66.659, -163.792
1522.185, 66.541, -163.508
1544.326, 66.454, -162.883
1566.789, 66.393, -162.070
1589.578, 66.378, -161.116
1612.699, 66.415, -160.341
1636.156, 66.450, -159.969
1659.955, 66.438, -159.586
1684.099, 66.399, -159.021
1708.595, 66.382, -158.087
1733.447, 66.422, -157.063
1758.661, 66.494, -156.288
1784.241, 66.569, -155.709
1810.193, 66.641, -155.210
1836.523, 66.690, -154.699
1863.236, 66.755, -154.241
1890.338, 66.832, -153.895
1917.833, 66.875, -153.738
1945.729, 66.875, -153.632
1974.030, 66.798, -153.362
2002.743, 66.678, -152.271
2031.873, 66.646, -150.463
2061.428, 66.733, -148.671
2091.412, 66.868, -147.141
2121.832, 67.028, -145.830
2152.695, 67.195, -144.734
2184.007, 67.346, -143.623
2215.774, 67.516, -142.325
2248.003, 67.728, -140.958
2280.701, 68.001, -139.689
2313.874, 68.324, -138.639
2347.530, 68.674, -137.978
2381.676, 69.035, -137.669
2416.318, 69.393, -137.778
2451.464, 69.716, -138.145
2487.122, 70.005, -138.570
2523.298, 70.302, -138.952
2560.000, 70.623, -139.616
2597.236, 70.927, -140.684
2635.014, 71.167, -142.067
2673.341, 71.348, -143.448
2712.226, 71.475, -144.765
2751.676, 71.542, -145.767
2791.700, 71.597, -146.102
2832.306, 71.745, -145.963
2873.503, 71.992, -146.075
2915.299, 72.280, -146.605
2957.703, 72.569, -147.553
3000.724, 72.849, -148.841
3044.370, 73.101, -150.297
3088.652, 73.351, -151.989
3133.577, 73.588, -154.060
3179.156, 73.763, -156.455
3225.398, 73.871, -158.875
3272.312, 73.950, -161.276
3319.909, 73.993, -163.795
3368.198, 73.973, -166.447
3417.190, 73.868, -168.975
3466.894, 73.689, -171.119
3517.321, 73.467, -172.721
3568.482, 73.242, -173.614
3620.387, 73.094, -173.906
3673.046, 73.042, -174.221
3726.472, 73.022, -174.752
3780.675, 73.028, -175.428
3835.666, 73.056, -176.306
3891.457, 73.086, -177.440
3948.060, 73.108, -178.795
4005.486, 73.115, 179.611
4063.747, 73.091, 177.745
4122.855, 73.007, 175.695
4182.824, 72.858, 173.632
4243.664, 72.648, 171.711
4305.390, 72.374, 169.974
4368.013, 72.026, 168.720
4431.547, 71.680, 168.326
4496.005, 71.424, 168.403
4561.401, 71.254, 168.253
4627.749, 71.069, 167.754
4695.061, 70.842, 167.199
4763.352, 70.580, 166.849
4832.637, 70.305, 166.729
4902.929, 70.016, 166.815
4974.244, 69.707, 167.195
5046.596, 69.396, 168.108
5120.000, 69.126, 169.538
5194.472, 68.932, 171.271
5270.027, 68.798, 172.980
5346.682, 68.689, 174.929
5424.451, 68.651, 177.187
5503.352, 68.722, 179.614
5583.399, 68.910, -178.171
5664.612, 69.208, -176.376
5747.006, 69.586, -175.316
5830.598, 69.986, -175.097
5915.406, 70.356, -175.494
6001.447, 70.708, -176.146
6088.740, 71.090, -177.069
6177.303, 71.524, -178.529
6267.154, 72.001, 178.991
6358.312, 72.448, 175.067
6450.796, 72.740, 169.669
6544.625, 72.764, 163.384
6639.818, 72.497, 157.034
6736.397, 71.969, 151.196
6834.380, 71.189, 146.244
6933.789, 70.186, 143.335
7034.643, 69.215, 142.627
7136.964, 68.336, 143.348
7240.773, 67.601, 145.233
7346.093, 67.024, 147.736
7452.944, 66.602, 150.553
7561.350, 66.325, 153.385
7671.332, 66.158, 156.050
7782.915, 66.096, 158.569
7896.120, 66.132, 160.770
8010.971, 66.273, 162.543
8127.493, 66.521, 163.845
8245.711, 66.875, 164.272
8365.647, 67.323, 163.404
8487.328, 67.802, 160.659
8610.779, 68.152, 155.610
8736.026, 68.212, 149.485
8863.095, 67.932, 138.774
8992.011, 66.738, 132.613
9122.803, 65.387, 128.191
9255.497, 63.854, 126.379
9390.121, 62.277, 127.870
9526.704, 60.897, 132.388
9665.273, 59.922, 138.855
9805.857, 59.352, 145.569
9948.487, 59.118, 151.668
10093.191, 59.110, 156.323
10240.000, 59.180, 159.051
10388.944, 59.160, 160.161
10540.055, 58.893, 160.513
10693.363, 58.377, 161.304
10848.902, 57.698, 163.622
11006.703, 56.998, 168.373
11166.799, 56.582, 175.268
11329.224, 56.537, -177.169
11494.012, 56.862, -169.642
11661.195, 57.589, -162.960
11830.812, 58.673, -158.218
12002.895, 60.084, -156.129
12177.480, 61.668, -158.392
12354.606, 63.130, -165.413
12534.309, 64.143, -176.932
12716.624, 64.405, 168.760
12901.592, 63.824, 154.244
13089.250, 62.569, 141.879
13279.637, 60.977, 132.675
13472.794, 59.349, 126.129
13668.760, 57.854, 120.183
13867.577, 56.413, 112.852
14069.285, 54.864, 102.556
14273.928, 52.938, 87.041
14481.547, 50.317, 63.776
14692.186, 47.117, 30.892
14905.889, 45.446, -8.186
15122.700, 46.284, -40.364
15342.664, 47.759, -59.655
15565.829, 49.275, -69.962
15792.239, 50.945, -78.830
16021.942, 52.199, -90.786
16254.986, 52.124, -104.782
16491.422, 50.165, -111.080
16731.295, 49.061, -94.206
16974.656, 51.579, -88.203
17221.559, 52.948, -96.192
17472.053, 53.223, -103.669
17726.189, 53.247, -110.464
17984.021, 52.922, -118.431
18245.605, 51.752, -126.787
18510.994, 49.542, -130.222
18780.242, 47.420, -120.045
19053.408, 47.472, -107.976
19330.547, 47.859, -104.366
19611.715, 47.940, -103.174
19896.975, 47.776, -102.092
