* Measurement data measured by REW V5.19
* Source: ASIO MOTU M Series, In 1
* Format: 1M Log Swept Sine, 1 sweep at -3.0 dBFS  With no timing reference
* Dated: 28 Oct, 2020 5:59:25 PM
* REW Settings:
*  C-weighting compensation: Off
*  Target level: 75.0 dB
* Note: ; 
* Measurement: Oct 28 17:59:25
* Smoothing: None
* Frequency Step: 1/48 octave
* Start Frequency: 10.1 Hz
*
* Freq(Hz), SPL(dB), Phase(degrees)
10.145, 52.527, -56.754
10.293, 52.746, -57.419
10.443, 52.969, -58.264
10.595, 53.191, -59.220
10.749, 53.404, -60.307
10.905, 53.598, -61.517
11.064, 53.771, -62.822
11.225, 53.915, -64.145
11.388, 54.030, -65.474
11.554, 54.117, -66.693
11.722, 54.178, -67.799
11.892, 54.224, -68.687
12.065, 54.259, -69.363
12.241, 54.305, -69.796
12.419, 54.365, -70.019
12.599, 54.459, -70.107
12.782, 54.585, -70.132
12.968, 54.751, -70.222
13.157, 54.943, -70.452
13.348, 55.155, -70.904
13.543, 55.365, -71.584
13.740, 55.566, -72.499
13.939, 55.741, -73.561
14.142, 55.888, -74.721
14.348, 56.002, -75.887
14.557, 56.094, -76.987
14.768, 56.166, -77.988
14.983, 56.235, -78.872
15.201, 56.303, -79.679
15.422, 56.378, -80.439
15.646, 56.456, -81.223
15.874, 56.531, -82.032
16.105, 56.597, -82.870
16.339, 56.647, -83.664
16.577, 56.687, -84.345
16.818, 56.726, -84.860
17.063, 56.782, -85.178
17.311, 56.874, -85.399
17.563, 57.008, -85.645
17.818, 57.182, -86.071
18.077, 57.374, -86.825
18.340, 57.552, -87.897
18.607, 57.695, -89.186
18.877, 57.790, -90.526
19.152, 57.838, -91.703
19.431, 57.868, -92.547
19.713, 57.916, -93.064
20.000, 58.007, -93.404
20.291, 58.147, -93.793
20.586, 58.316, -94.438
20.885, 58.476, -95.400
21.189, 58.591, -96.538
21.497, 58.651, -97.574
21.810, 58.678, -98.250
22.127, 58.719, -98.483
22.449, 58.817, -98.441
22.776, 58.987, -98.472
23.107, 59.198, -98.880
23.443, 59.397, -99.735
23.784, 59.542, -100.841
24.130, 59.625, -101.872
24.481, 59.676, -102.579
24.837, 59.745, -102.955
25.198, 59.860, -103.242
25.565, 60.010, -103.735
25.937, 60.154, -104.532
26.314, 60.257, -105.467
26.697, 60.321, -106.256
27.085, 60.385, -106.750
27.479, 60.492, -107.099
27.879, 60.646, -107.652
28.284, 60.800, -108.631
28.696, 60.900, -109.923
29.113, 60.920, -111.142
29.537, 60.893, -111.906
29.966, 60.886, -112.148
30.402, 60.945, -112.158
30.844, 61.063, -112.325
31.293, 61.195, -112.791
31.748, 61.311, -113.428
32.210, 61.416, -114.094
32.678, 61.521, -114.815
33.154, 61.616, -115.669
33.636, 61.678, -116.555
34.125, 61.715, -117.225
34.621, 61.774, -117.616
35.125, 61.890, -118.044
35.636, 62.026, -118.851
36.154, 62.114, -119.946
36.680, 62.144, -120.870
37.214, 62.177, -121.372
37.755, 62.266, -121.779
38.304, 62.382, -122.521
38.861, 62.448, -123.536
39.427, 62.449, -124.340
40.000, 62.445, -124.599
40.582, 62.516, -124.585
41.172, 62.663, -124.891
41.771, 62.791, -125.848
42.379, 62.821, -126.932
42.995, 62.812, -127.424
43.620, 62.897, -127.679
44.255, 63.022, -128.683
44.898, 63.015, -130.105
45.552, 62.917, -130.593
46.214, 62.963, -130.354
46.886, 63.124, -131.022
47.568, 63.159, -132.356
48.260, 63.115, -132.870
48.962, 63.199, -132.974
49.674, 63.337, -133.823
50.397, 63.401, -134.954
51.130, 63.440, -135.912
51.874, 63.459, -136.815
52.628, 63.477, -137.367
53.394, 63.555, -138.033
54.170, 63.553, -139.134
54.958, 63.454, -139.304
55.758, 63.511, -138.725
56.569, 63.651, -139.057
57.391, 63.694, -139.694
58.226, 63.732, -140.064
59.073, 63.783, -140.604
59.932, 63.840, -141.325
60.804, 63.872, -142.565
61.688, 63.798, -143.771
62.586, 63.723, -144.456
63.496, 63.684, -145.128
64.420, 63.647, -145.935
65.357, 63.532, -146.779
66.307, 63.394, -146.684
67.272, 63.358, -146.670
68.250, 63.202, -146.485
69.243, 63.170, -145.080
70.250, 63.257, -144.291
71.272, 63.397, -143.325
72.309, 63.650, -143.410
73.360, 63.800, -143.940
74.427, 63.959, -144.738
75.510, 63.994, -145.530
76.608, 64.093, -145.872
77.723, 64.133, -146.660
78.853, 64.191, -146.792
80.000, 64.274, -147.543
81.164, 64.297, -148.042
82.344, 64.333, -148.645
83.542, 64.369, -149.017
84.757, 64.416, -149.766
85.990, 64.424, -150.198
87.241, 64.488, -150.697
88.510, 64.508, -151.457
89.797, 64.531, -151.692
91.103, 64.563, -152.594
92.428, 64.547, -152.582
93.773, 64.594, -153.354
95.137, 64.629, -153.494
96.520, 64.633, -154.584
97.924, 64.644, -154.680
99.349, 64.655, -155.285
100.794, 64.740, -155.640
102.260, 64.681, -156.421
103.747, 64.663, -156.585
105.256, 64.683, -156.104
106.787, 64.672, -157.121
108.340, 64.798, -157.222
109.916, 64.667, -157.953
111.515, 64.762, -158.741
113.137, 64.785, -159.045
114.783, 64.721, -159.783
116.452, 64.720, -159.993
118.146, 64.703, -160.566
119.865, 64.755, -160.725
121.608, 64.742, -161.359
123.377, 64.793, -161.532
125.171, 64.695, -162.048
126.992, 64.790, -162.612
128.839, 64.642, -162.611
130.713, 64.626, -162.777
132.615, 64.760, -163.549
134.543, 64.722, -163.550
136.500, 64.729, -164.651
138.486, 64.691, -164.518
140.500, 64.589, -164.522
142.544, 64.599, -164.646
144.617, 64.572, -165.046
146.721, 64.504, -164.861
148.855, 64.543, -165.276
151.020, 64.564, -165.471
153.217, 64.545, -165.511
155.445, 64.589, -165.693
157.706, 64.562, -165.870
160.000, 64.551, -166.193
162.327, 64.521, -166.817
164.688, 64.468, -166.894
167.084, 64.506, -167.067
169.514, 64.458, -167.699
171.980, 64.386, -168.108
174.481, 64.344, -167.787
177.019, 64.374, -167.830
179.594, 64.385, -168.399
182.206, 64.353, -168.274
184.856, 64.327, -168.553
187.545, 64.239, -168.711
190.273, 64.229, -168.970
193.041, 64.225, -169.062
195.849, 64.217, -168.883
198.697, 64.174, -168.878
201.587, 64.111, -169.032
204.520, 64.157, -168.186
207.494, 64.238, -169.114
210.512, 64.145, -168.913
213.574, 64.135, -168.605
216.681, 64.097, -168.989
219.833, 64.119, -168.534
223.030, 64.107, -168.884
226.274, 64.091, -168.913
229.565, 64.141, -169.008
232.905, 64.092, -169.268
236.292, 64.090, -169.044
239.729, 64.051, -169.105
243.216, 64.084, -168.892
246.754, 64.086, -169.384
250.343, 64.053, -169.140
253.984, 64.019, -169.294
257.678, 64.047, -169.056
261.426, 63.980, -169.214
265.229, 64.019, -169.216
269.087, 64.002, -169.045
273.001, 63.954, -169.304
276.972, 63.958, -169.474
281.000, 63.863, -168.883
285.088, 63.945, -169.992
289.234, 63.912, -169.495
293.441, 63.946, -168.855
297.710, 63.832, -168.288
302.040, 63.937, -167.931
306.433, 63.844, -169.205
310.890, 63.914, -169.243
315.412, 63.843, -168.684
320.000, 63.851, -168.410
324.655, 63.816, -168.121
329.377, 63.741, -168.553
334.168, 63.913, -168.438
339.028, 63.662, -167.163
343.959, 63.834, -168.104
348.962, 63.812, -168.092
354.038, 63.763, -167.660
359.188, 63.836, -167.667
364.412, 63.746, -167.442
369.713, 63.762, -167.339
375.090, 63.738, -167.203
380.546, 63.769, -167.129
386.081, 63.737, -166.783
391.697, 63.750, -166.794
397.395, 63.742, -166.706
403.175, 63.740, -166.219
409.039, 63.691, -166.246
414.989, 63.752, -165.878
421.025, 63.761, -166.067
427.149, 63.673, -165.306
433.362, 63.730, -165.732
439.665, 63.702, -165.301
446.060, 63.708, -165.220
452.548, 63.680, -164.892
459.131, 63.722, -164.652
465.809, 63.684, -164.184
472.584, 63.773, -164.185
479.458, 63.688, -163.767
486.432, 63.744, -163.446
493.507, 63.766, -163.448
500.686, 63.764, -162.977
507.968, 63.791, -162.469
515.357, 63.817, -162.808
522.853, 63.849, -162.027
530.458, 63.850, -161.842
538.174, 63.849, -161.820
546.002, 64.022, -161.100
553.943, 64.027, -161.250
562.001, 63.942, -161.233
570.175, 63.883, -160.878
578.469, 63.989, -160.422
586.883, 64.015, -160.501
595.419, 64.021, -160.042
604.080, 64.098, -160.090
612.866, 64.099, -160.044
621.780, 64.080, -159.540
630.824, 64.098, -159.483
640.000, 64.129, -159.696
649.309, 64.132, -159.198
658.753, 64.142, -158.675
668.335, 64.180, -158.918
678.056, 64.258, -158.761
687.919, 64.162, -160.074
697.925, 64.141, -158.965
708.076, 64.104, -158.975
718.376, 64.089, -158.217
728.825, 64.027, -158.102
739.426, 63.960, -157.785
750.181, 63.926, -157.107
761.093, 63.877, -155.959
772.163, 63.872, -154.687
783.394, 63.972, -153.554
794.789, 63.997, -152.431
806.349, 64.108, -151.713
818.078, 64.191, -150.959
829.977, 64.364, -150.361
842.050, 64.399, -149.655
854.297, 64.502, -149.237
866.724, 64.623, -149.020
879.330, 64.796, -148.382
892.120, 64.838, -148.516
905.097, 64.992, -147.911
918.262, 65.106, -147.769
931.618, 65.220, -147.553
945.169, 65.250, -147.510
958.917, 65.390, -147.169
972.864, 65.466, -146.940
987.015, 65.563, -146.997
1001.371, 65.636, -146.562
1015.937, 65.714, -146.539
1030.714, 65.782, -146.361
1045.706, 66.015, -145.960
1060.916, 66.078, -146.305
1076.347, 66.183, -146.231
1092.003, 66.328, -146.500
1107.887, 66.347, -146.440
1124.001, 66.414, -145.967
1140.350, 66.529, -146.118
1156.937, 66.697, -146.103
1173.765, 66.736, -145.905
1190.838, 66.912, -146.059
1208.159, 66.933, -147.519
1225.732, 66.895, -147.776
1243.561, 66.887, -147.171
1261.649, 66.977, -148.339
1280.000, 67.032, -147.173
1298.618, 67.018, -146.612
1317.507, 67.100, -146.350
1336.670, 67.309, -146.130
1356.113, 67.380, -145.526
1375.838, 67.482, -146.008
1395.850, 67.460, -145.327
1416.153, 67.696, -145.092
1436.751, 67.944, -145.731
1457.649, 67.978, -146.707
1478.851, 68.229, -147.124
1500.362, 68.247, -148.423
1522.185, 68.074, -149.282
1544.326, 68.099, -149.203
1566.789, 68.128, -150.762
1589.578, 68.049, -149.974
1612.699, 67.771, -149.925
1636.156, 67.776, -148.751
1659.955, 67.601, -147.572
1684.099, 67.946, -145.487
1708.595, 68.117, -147.748
1733.447, 68.098, -145.897
1758.661, 68.156, -144.484
1784.241, 68.430, -144.663
1810.193, 68.434, -144.710
1836.523, 68.633, -144.025
1863.236, 68.715, -144.815
1890.338, 68.918, -144.218
1917.833, 68.893, -143.618
1945.729, 68.989, -143.179
1974.030, 69.077, -143.160
2002.743, 69.191, -142.867
2031.873, 69.276, -141.884
2061.428, 69.445, -142.002
2091.412, 69.676, -140.523
2121.832, 70.011, -140.340
2152.695, 70.219, -140.852
2184.007, 70.296, -140.450
2215.774, 70.501, -140.135
2248.003, 70.957, -140.906
2280.701, 70.952, -141.868
2313.874, 71.096, -141.189
2347.530, 71.646, -140.370
2381.676, 72.047, -141.915
2416.318, 72.094, -144.325
2451.464, 72.312, -143.189
2487.122, 72.542, -144.448
2523.298, 72.758, -146.256
2560.000, 72.949, -147.302
2597.236, 73.138, -147.974
2635.014, 73.407, -148.980
2673.341, 73.571, -150.330
2712.226, 73.935, -150.978
2751.676, 74.258, -153.525
2791.700, 74.366, -155.186
2832.306, 74.477, -157.228
2873.503, 74.581, -158.890
2915.299, 74.701, -160.404
2957.703, 74.942, -162.945
3000.724, 74.926, -165.570
3044.370, 74.957, -166.679
3088.652, 75.209, -169.613
3133.577, 75.217, -172.214
3179.156, 75.215, -174.260
3225.398, 75.221, -177.417
3272.312, 75.277, -179.274
3319.909, 75.284, 177.270
3368.198, 75.050, 173.255
3417.190, 74.696, 171.164
3466.894, 74.591, 168.421
3517.321, 74.286, 166.316
3568.482, 74.057, 163.777
3620.387, 73.666, 161.255
3673.046, 73.159, 159.637
3726.472, 72.736, 157.037
3780.675, 72.180, 156.310
3835.666, 71.484, 156.299
3891.457, 70.981, 157.021
3948.060, 70.318, 159.518
4005.486, 69.974, 163.020
4063.747, 69.860, 165.859
4122.855, 70.052, 169.674
4182.824, 70.203, 171.061
4243.664, 70.562, 172.111
4305.390, 70.856, 172.451
4368.013, 71.041, 171.442
4431.547, 71.196, 169.607
4496.005, 71.266, 168.460
4561.401, 71.202, 166.377
4627.749, 71.182, 165.211
4695.061, 71.097, 163.301
4763.352, 70.886, 162.337
4832.637, 70.648, 161.313
4902.929, 70.435, 161.013
4974.244, 70.098, 161.307
5046.596, 69.880, 163.422
5120.000, 69.940, 166.053
5194.472, 70.292, 167.535
5270.027, 70.824, 168.169
5346.682, 71.437, 166.630
5424.451, 71.972, 162.571
5503.352, 72.314, 157.264
5583.399, 72.302, 150.362
5664.612, 71.960, 143.498
5747.006, 71.192, 138.517
5830.598, 70.420, 134.939
5915.406, 69.602, 131.728
6001.447, 68.550, 130.208
6088.740, 67.572, 130.557
6177.303, 66.728, 131.112
6267.154, 65.698, 132.956
6358.312, 64.858, 136.963
6450.796, 64.228, 141.616
6544.625, 63.777, 147.229
6639.818, 63.598, 153.634
6736.397, 63.795, 159.679
6834.380, 64.262, 163.804
6933.789, 64.807, 166.020
7034.643, 65.274, 167.366
7136.964, 65.939, 167.403
7240.773, 66.482, 165.513
7346.093, 67.006, 162.792
7452.944, 67.330, 157.588
7561.350, 67.355, 152.289
7671.332, 67.210, 145.976
7782.915, 66.697, 139.310
7896.120, 65.797, 133.415
8010.971, 64.586, 126.890
8127.493, 62.571, 126.700
8245.711, 61.001, 132.876
8365.647, 60.396, 139.852
8487.328, 60.027, 143.891
8610.779, 59.665, 147.040
8736.026, 59.095, 148.833
8863.095, 58.311, 152.633
8992.011, 57.536, 158.640
9122.803, 57.140, 166.627
9255.497, 57.151, 175.248
9390.121, 57.490, -177.182
9526.704, 58.288, -171.151
9665.273, 59.192, -167.854
9805.857, 60.111, -167.699
9948.487, 60.811, -169.824
10093.191, 61.197, -173.888
10240.000, 61.133, -178.100
10388.944, 60.627, 178.804
10540.055, 59.942, 179.155
10693.363, 59.596, -177.531
10848.902, 59.786, -174.487
11006.703, 60.185, -174.188
11166.799, 60.481, -176.727
11329.224, 60.329, 179.095
11494.012, 59.658, 176.134
11661.195, 58.855, 176.311
11830.812, 58.215, 178.871
12002.895, 57.951, -176.885
12177.480, 58.135, -174.126
12354.606, 58.427, -174.375
12534.309, 58.715, -176.068
12716.624, 58.847, -179.907
12901.592, 58.836, 173.649
13089.250, 58.451, 165.531
13279.637, 57.780, 154.795
13472.794, 56.631, 139.020
13668.760, 54.393, 115.773
13867.577, 50.634, 80.103
14069.285, 47.497, 26.889
14273.928, 48.767, -15.417
14481.547, 51.518, -33.027
14692.186, 54.272, -41.170
14905.889, 56.888, -46.643
15122.700, 59.563, -50.303
15342.664, 62.968, -58.770
15565.829, 65.704, -80.813
15792.239, 66.022, -104.431
16021.942, 65.621, -120.277
16254.986, 65.243, -134.044
16491.422, 64.639, -149.138
16731.295, 63.069, -165.991
16974.656, 60.168, -178.586
17221.559, 56.349, 178.108
17472.053, 52.258, -167.239
17726.189, 51.637, -134.299
17984.021, 54.777, -121.820
18245.605, 56.543, -128.637
18510.994, 56.950, -136.489
18780.242, 56.828, -143.318
19053.408, 56.574, -150.493
19330.547, 56.231, -160.730
19611.715, 54.915, -172.856
19896.975, 52.282, 173.151
