* Measurement data measured by REW V5.19
* Source: ASIO MOTU M Series, In 1
* Format: 1M Log Swept Sine, 1 sweep at -3.0 dBFS  With no timing reference
* Dated: 2 Mar, 2021 4:36:52 PM
* REW Settings:
*  C-weighting compensation: Off
*  Target level: 75.0 dB
* Note: ; 
* Measurement: Mar 2 16:36:52
* Smoothing: 1/48 octave
* Frequency Step: 1/48 octave
* Start Frequency: 10.1 Hz
*
* Freq(Hz), SPL(dB), Phase(degrees)
10.145, 65.590, 121.352
10.293, 65.631, 120.494
10.443, 65.676, 119.315
10.595, 65.763, 117.757
10.749, 65.865, 116.070
10.905, 65.969, 114.640
11.064, 66.075, 113.233
11.225, 66.174, 111.532
11.388, 66.266, 109.646
11.554, 66.336, 107.754
11.722, 66.386, 105.841
11.892, 66.416, 103.989
12.065, 66.427, 102.197
12.241, 66.429, 100.500
12.419, 66.425, 98.904
12.599, 66.426, 97.452
12.782, 66.433, 96.094
12.968, 66.455, 94.758
13.157, 66.487, 93.425
13.348, 66.529, 92.070
13.543, 66.572, 90.667
13.740, 66.614, 89.209
13.939, 66.648, 87.744
14.142, 66.674, 86.295
14.348, 66.692, 84.912
14.557, 66.712, 83.607
14.768, 66.736, 82.387
14.983, 66.773, 81.220
15.201, 66.824, 80.053
15.422, 66.889, 78.841
15.646, 66.957, 77.526
15.874, 67.021, 76.116
16.105, 67.071, 74.619
16.339, 67.098, 73.113
16.577, 67.104, 71.670
16.818, 67.092, 70.351
17.063, 67.075, 69.217
17.311, 67.066, 68.246
17.563, 67.074, 67.389
17.818, 67.105, 66.570
18.077, 67.157, 65.682
18.340, 67.217, 64.668
18.607, 67.272, 63.519
18.877, 67.312, 62.261
19.152, 67.328, 60.957
19.431, 67.318, 59.695
19.713, 67.289, 58.541
20.000, 67.249, 57.537
20.291, 67.208, 56.697
20.586, 67.178, 56.002
20.885, 67.168, 55.400
21.189, 67.182, 54.814
21.497, 67.219, 54.153
21.810, 67.269, 53.341
22.127, 67.319, 52.349
22.449, 67.353, 51.203
22.776, 67.361, 49.984
23.107, 67.342, 48.798
23.443, 67.306, 47.729
23.784, 67.267, 46.803
24.130, 67.238, 45.975
24.481, 67.220, 45.168
24.837, 67.208, 44.330
25.198, 67.194, 43.464
25.565, 67.174, 42.620
25.937, 67.154, 41.833
26.314, 67.144, 41.080
26.697, 67.144, 40.286
27.085, 67.145, 39.391
27.479, 67.129, 38.418
27.879, 67.088, 37.483
28.284, 67.033, 36.713
28.696, 66.985, 36.140
29.113, 66.964, 35.665
29.537, 66.969, 35.119
29.966, 66.981, 34.400
30.402, 66.976, 33.544
30.844, 66.944, 32.686
31.293, 66.895, 31.946
31.748, 66.845, 31.347
32.210, 66.806, 30.823
32.678, 66.776, 30.286
33.154, 66.746, 29.702
33.636, 66.706, 29.101
34.125, 66.655, 28.539
34.621, 66.599, 28.050
35.125, 66.543, 27.625
35.636, 66.488, 27.239
36.154, 66.428, 26.886
36.680, 66.362, 26.611
37.214, 66.291, 26.483
37.755, 66.228, 26.551
38.304, 66.187, 26.813
38.861, 66.186, 27.221
39.427, 66.239, 27.671
40.000, 66.357, 27.957
40.582, 66.525, 27.745
41.172, 66.676, 26.812
41.771, 66.726, 25.365
42.379, 66.641, 24.070
42.995, 66.488, 23.507
43.620, 66.362, 23.561
44.255, 66.268, 23.809
44.898, 66.159, 24.434
45.552, 66.109, 25.992
46.214, 66.292, 28.106
46.886, 66.750, 29.271
47.568, 67.298, 28.325
48.260, 67.695, 25.393
48.962, 67.796, 21.681
49.674, 67.635, 18.756
50.397, 67.414, 17.276
51.130, 67.283, 16.423
51.874, 67.188, 15.425
52.628, 67.068, 14.429
53.394, 66.934, 13.478
54.170, 66.748, 12.598
54.958, 66.518, 12.290
55.758, 66.330, 12.547
56.569, 66.193, 12.943
57.391, 66.070, 13.430
58.226, 65.932, 14.130
59.073, 65.779, 15.528
59.932, 65.715, 17.872
60.804, 65.834, 20.785
61.688, 66.227, 23.498
62.586, 66.828, 24.431
63.496, 67.369, 23.252
64.420, 67.761, 20.915
65.357, 67.993, 17.817
66.307, 68.030, 14.543
67.272, 67.926, 11.833
68.250, 67.785, 9.862
69.243, 67.653, 8.306
70.250, 67.517, 7.091
71.272, 67.392, 6.181
72.309, 67.271, 5.552
73.360, 67.185, 5.039
74.427, 67.078, 4.381
75.510, 66.946, 4.071
76.608, 66.866, 3.882
77.723, 66.796, 3.412
78.853, 66.685, 2.976
80.000, 66.584, 2.819
81.164, 66.506, 2.732
82.344, 66.460, 2.593
83.542, 66.395, 2.280
84.757, 66.333, 2.172
85.990, 66.288, 1.938
87.241, 66.223, 1.755
88.510, 66.160, 1.754
89.797, 66.120, 1.796
91.103, 66.070, 1.789
92.428, 66.030, 1.858
93.773, 65.999, 1.832
95.137, 65.978, 1.736
96.520, 65.964, 1.571
97.924, 65.954, 1.178
99.349, 65.879, 0.799
100.794, 65.813, 0.797
102.260, 65.771, 0.677
103.747, 65.734, 0.593
105.256, 65.709, 0.308
106.787, 65.663, 0.149
108.340, 65.616, 0.022
109.916, 65.563, 0.022
111.515, 65.515, 0.010
113.137, 65.472, -0.072
114.783, 65.428, -0.168
116.452, 65.389, -0.129
118.146, 65.355, -0.127
119.865, 65.304, -0.073
121.608, 65.256, -0.042
123.377, 65.221, -0.274
125.171, 65.160, -0.252
126.992, 65.154, -0.279
128.839, 65.130, -0.168
130.713, 65.099, -0.095
132.615, 65.055, 0.026
134.543, 65.018, 0.097
136.500, 64.991, 0.230
138.486, 64.965, 0.307
140.500, 64.933, 0.423
142.544, 64.905, 0.506
144.617, 64.881, 0.551
146.721, 64.864, 0.594
148.855, 64.837, 0.661
151.020, 64.809, 0.764
153.217, 64.782, 0.858
155.445, 64.755, 0.986
157.706, 64.740, 1.152
160.000, 64.721, 1.244
162.327, 64.695, 1.336
164.688, 64.675, 1.493
167.084, 64.660, 1.608
169.514, 64.631, 1.809
171.980, 64.621, 2.077
174.481, 64.625, 2.264
177.019, 64.618, 2.352
179.594, 64.596, 2.488
182.206, 64.583, 2.574
184.856, 64.570, 2.689
187.545, 64.561, 2.810
190.273, 64.543, 2.928
193.041, 64.534, 3.066
195.849, 64.537, 3.183
198.697, 64.547, 3.366
201.587, 64.541, 3.454
204.520, 64.516, 3.719
207.494, 64.502, 3.826
210.512, 64.500, 3.888
213.574, 64.509, 4.034
216.681, 64.500, 4.298
219.833, 64.486, 4.448
223.030, 64.476, 4.606
226.274, 64.481, 4.794
229.565, 64.481, 5.083
232.905, 64.501, 5.308
236.292, 64.505, 5.458
239.729, 64.510, 5.616
243.216, 64.526, 5.701
246.754, 64.533, 5.927
250.343, 64.545, 6.143
253.984, 64.552, 6.280
257.678, 64.579, 6.420
261.426, 64.604, 6.528
265.229, 64.624, 6.653
269.087, 64.638, 6.629
273.001, 64.643, 6.629
276.972, 64.639, 6.706
281.000, 64.641, 6.848
285.088, 64.654, 7.056
289.234, 64.682, 7.241
293.441, 64.710, 7.315
297.710, 64.722, 7.375
302.040, 64.748, 7.419
306.433, 64.772, 7.501
310.890, 64.785, 7.557
315.412, 64.811, 7.601
320.000, 64.835, 7.540
324.655, 64.846, 7.477
329.377, 64.856, 7.468
334.168, 64.860, 7.428
339.028, 64.860, 7.489
343.959, 64.866, 7.626
348.962, 64.889, 7.616
354.038, 64.903, 7.556
359.188, 64.909, 7.545
364.412, 64.909, 7.520
369.713, 64.922, 7.453
375.090, 64.934, 7.313
380.546, 64.930, 7.148
386.081, 64.910, 7.068
391.697, 64.901, 7.050
397.395, 64.888, 6.871
403.175, 64.838, 6.653
409.039, 64.812, 6.540
414.989, 64.733, 6.394
421.025, 64.633, 6.343
427.149, 64.494, 6.668
433.362, 64.359, 7.486
439.665, 64.286, 8.731
446.060, 64.307, 9.980
452.548, 64.387, 10.939
459.131, 64.483, 11.576
465.809, 64.573, 11.970
472.584, 64.646, 12.315
479.458, 64.713, 12.637
486.432, 64.769, 12.913
493.507, 64.837, 13.363
500.686, 64.952, 13.651
507.968, 65.052, 13.659
515.357, 65.127, 13.689
522.853, 65.216, 13.725
530.458, 65.314, 13.592
538.174, 65.388, 13.192
546.002, 65.422, 13.071
553.943, 65.492, 12.963
562.001, 65.565, 12.572
570.175, 65.625, 11.937
578.469, 65.614, 11.419
586.883, 65.600, 11.053
595.419, 65.566, 10.659
604.080, 65.536, 10.703
612.866, 65.534, 10.671
621.780, 65.539, 10.735
630.824, 65.580, 10.559
640.000, 65.613, 10.325
649.309, 65.634, 9.851
658.753, 65.643, 9.433
668.335, 65.648, 8.548
678.056, 65.582, 7.691
687.919, 65.452, 6.694
697.925, 65.237, 5.884
708.076, 64.927, 5.645
718.376, 64.548, 6.376
728.825, 64.220, 8.675
739.426, 64.138, 11.803
750.181, 64.276, 14.564
761.093, 64.561, 16.325
772.163, 64.840, 16.898
783.394, 65.047, 16.913
794.789, 65.191, 16.676
806.349, 65.281, 16.619
818.078, 65.390, 16.506
829.977, 65.444, 16.341
842.050, 65.544, 16.450
854.297, 65.646, 16.160
866.724, 65.723, 15.714
879.330, 65.764, 15.405
892.120, 65.851, 15.007
905.097, 65.867, 14.098
918.262, 65.832, 13.631
931.618, 65.812, 13.185
945.169, 65.772, 12.683
958.917, 65.693, 12.166
972.864, 65.578, 11.926
987.015, 65.458, 12.250
1001.371, 65.402, 12.390
1015.937, 65.315, 12.791
1030.714, 65.279, 13.175
1045.706, 65.202, 13.530
1060.916, 65.153, 14.057
1076.347, 65.089, 14.727
1092.003, 65.056, 15.689
1107.887, 65.095, 16.708
1124.001, 65.188, 17.621
1140.350, 65.304, 17.954
1156.937, 65.427, 18.245
1173.765, 65.549, 17.966
1190.838, 65.599, 17.647
1208.159, 65.681, 17.040
1225.732, 65.644, 16.374
1243.561, 65.630, 15.934
1261.649, 65.553, 15.064
1280.000, 65.401, 14.723
1298.618, 65.254, 14.622
1317.507, 65.087, 14.646
1336.670, 64.896, 15.063
1356.113, 64.714, 15.638
1375.838, 64.576, 16.547
1395.850, 64.376, 17.045
1416.153, 64.143, 18.452
1436.751, 63.977, 20.014
1457.649, 63.743, 22.131
1478.851, 63.603, 25.249
1500.362, 63.684, 28.760
1522.185, 63.867, 31.318
1544.326, 64.083, 33.723
1566.789, 64.391, 35.447
1589.578, 64.590, 36.502
1612.699, 64.807, 38.141
1636.156, 65.103, 39.169
1659.955, 65.286, 39.973
1684.099, 65.547, 41.308
1708.595, 65.831, 41.737
1733.447, 66.057, 42.441
1758.661, 66.359, 42.898
1784.241, 66.594, 42.730
1810.193, 66.768, 43.105
1836.523, 67.014, 43.191
1863.236, 67.128, 43.358
1890.338, 67.425, 44.083
1917.833, 67.629, 43.629
1945.729, 67.881, 44.030
1974.030, 68.091, 43.076
2002.743, 68.245, 43.022
2031.873, 68.397, 42.401
2061.428, 68.469, 42.270
2091.412, 68.589, 42.285
2121.832, 68.653, 42.369
2152.695, 68.788, 43.005
2184.007, 68.911, 43.483
2215.774, 69.136, 44.195
2248.003, 69.342, 44.458
2280.701, 69.586, 44.811
2313.874, 69.802, 44.886
2347.530, 70.041, 45.374
2381.676, 70.333, 45.476
2416.318, 70.685, 45.476
2451.464, 70.958, 44.810
2487.122, 71.240, 44.274
2523.298, 71.489, 43.945
2560.000, 71.787, 43.412
2597.236, 72.105, 42.904
2635.014, 72.435, 41.974
2673.341, 72.775, 40.843
2712.226, 73.085, 39.357
2751.676, 73.388, 37.627
2791.700, 73.664, 35.676
2832.306, 73.880, 33.398
2873.503, 74.048, 31.103
2915.299, 74.160, 28.938
2957.703, 74.237, 26.926
3000.724, 74.324, 25.085
3044.370, 74.419, 23.208
3088.652, 74.493, 21.216
3133.577, 74.537, 19.156
3179.156, 74.551, 17.195
3225.398, 74.559, 15.368
3272.312, 74.551, 13.558
3319.909, 74.533, 11.845
3368.198, 74.519, 10.228
3417.190, 74.519, 8.639
3466.894, 74.522, 6.896
3517.321, 74.519, 5.044
3568.482, 74.511, 2.981
3620.387, 74.463, 0.607
3673.046, 74.334, -1.911
3726.472, 74.102, -4.270
3780.675, 73.799, -5.925
3835.666, 73.519, -6.909
3891.457, 73.280, -7.545
3948.060, 73.098, -7.921
4005.486, 72.990, -8.337
4063.747, 72.931, -9.260
4122.855, 72.832, -10.763
4182.824, 72.633, -12.552
4243.664, 72.315, -14.118
4305.390, 71.885, -15.052
4368.013, 71.394, -14.681
4431.547, 71.011, -12.850
4496.005, 70.847, -10.497
4561.401, 70.870, -8.378
4627.749, 71.038, -6.917
4695.061, 71.277, -6.348
4763.352, 71.539, -6.716
4832.637, 71.749, -8.001
4902.929, 71.872, -9.952
4974.244, 71.848, -12.336
5046.596, 71.653, -14.343
5120.000, 71.390, -15.332
5194.472, 71.176, -15.594
5270.027, 71.013, -15.692
5346.682, 70.871, -15.470
5424.451, 70.804, -14.949
5503.352, 70.830, -14.445
5583.399, 70.981, -14.271
5664.612, 71.198, -15.292
5747.006, 71.314, -17.495
5830.598, 71.251, -19.979
5915.406, 71.080, -22.024
6001.447, 70.883, -23.616
6088.740, 70.693, -25.249
6177.303, 70.432, -26.970
6267.154, 70.083, -28.437
6358.312, 69.652, -29.030
6450.796, 69.278, -28.689
6544.625, 69.011, -27.925
6639.818, 68.867, -27.324
6736.397, 68.746, -27.327
6834.380, 68.567, -27.376
6933.789, 68.391, -27.112
7034.643, 68.242, -26.530
7136.964, 68.205, -25.532
7240.773, 68.361, -25.098
7346.093, 68.569, -26.254
7452.944, 68.601, -28.582
7561.350, 68.435, -30.405
7671.332, 68.307, -30.895
7782.915, 68.448, -31.357
7896.120, 68.713, -33.588
8010.971, 68.928, -37.104
8127.493, 69.139, -41.952
8245.711, 69.258, -48.753
8365.647, 69.157, -57.245
8487.328, 68.804, -67.550
8610.779, 67.990, -79.224
8736.026, 66.823, -91.072
8863.095, 65.311, -104.254
8992.011, 63.516, -119.449
9122.803, 61.371, -139.246
9255.497, 58.996, -165.442
9390.121, 56.784, 162.139
9526.704, 55.631, 134.941
9665.273, 56.933, 118.789
9805.857, 59.208, 104.472
9948.487, 60.864, 90.710
10093.191, 61.769, 81.801
10240.000, 62.765, 78.944
10388.944, 64.354, 77.453
10540.055, 66.219, 73.031
10693.363, 68.054, 64.833
10848.902, 69.455, 51.405
11006.703, 69.686, 35.209
11166.799, 68.892, 24.199
11329.224, 68.106, 18.963
11494.012, 67.530, 15.856
11661.195, 67.144, 14.543
11830.812, 67.111, 13.742
12002.895, 67.389, 11.422
12177.480, 67.537, 6.042
12354.606, 67.327, 1.440
12534.309, 67.443, -2.977
12716.624, 67.388, -12.059
12901.592, 66.534, -19.965
13089.250, 65.875, -25.775
13279.637, 65.173, -34.889
13472.794, 63.863, -45.081
13668.760, 62.213, -54.589
13867.577, 60.358, -67.390
14069.285, 57.965, -88.382
14273.928, 55.220, -126.800
14481.547, 55.130, 176.201
14692.186, 57.606, 123.014
14905.889, 59.037, 91.889
15122.700, 59.838, 76.073
15342.664, 60.292, 65.264
15565.829, 60.101, 58.687
15792.239, 60.009, 57.643
16021.942, 60.268, 56.589
16254.986, 60.439, 57.102
16491.422, 61.371, 57.499
16731.295, 62.154, 51.682
16974.656, 62.387, 44.753
17221.559, 62.276, 36.263
17472.053, 61.337, 28.222
17726.189, 59.852, 24.527
17984.021, 58.091, 25.122
18245.605, 56.161, 33.290
18510.994, 55.585, 51.346
18780.242, 57.821, 63.434
19053.408, 59.607, 57.916
19330.547, 59.853, 47.728
19611.715, 59.177, 41.081
19896.975, 58.349, 37.914
