* Measurement data measured by REW V5.19
* Source: ASIO MOTU M Series, In 1
* Format: 1M Log Swept Sine, 1 sweep at -3.0 dBFS  With no timing reference
* Dated: 2 Mar, 2021 4:38:44 PM
* REW Settings:
*  C-weighting compensation: Off
*  Target level: 75.0 dB
* Note: ; 
* Measurement: Mar 2 16:38:44
* Smoothing: 1/48 octave
* Frequency Step: 1/48 octave
* Start Frequency: 10.1 Hz
*
* Freq(Hz), SPL(dB), Phase(degrees)
10.145, 65.534, 123.438
10.293, 65.611, 122.372
10.443, 65.692, 120.904
10.595, 65.816, 118.942
10.749, 65.943, 116.844
10.905, 66.037, 115.130
11.064, 66.115, 113.518
11.225, 66.192, 111.691
11.388, 66.263, 109.756
11.554, 66.317, 107.882
11.722, 66.355, 106.050
11.892, 66.380, 104.291
12.065, 66.392, 102.606
12.241, 66.398, 101.003
12.419, 66.399, 99.497
12.599, 66.404, 98.148
12.782, 66.415, 96.912
12.968, 66.444, 95.736
13.157, 66.490, 94.584
13.348, 66.556, 93.433
13.543, 66.637, 92.187
13.740, 66.729, 90.820
13.939, 66.819, 89.297
14.142, 66.900, 87.638
14.348, 66.960, 85.861
14.557, 66.995, 84.049
14.768, 67.000, 82.243
14.983, 66.980, 80.558
15.201, 66.943, 79.028
15.422, 66.899, 77.694
15.646, 66.864, 76.540
15.874, 66.844, 75.510
16.105, 66.846, 74.543
16.339, 66.865, 73.538
16.577, 66.892, 72.470
16.818, 66.917, 71.329
17.063, 66.930, 70.162
17.311, 66.931, 69.056
17.563, 66.928, 68.060
17.818, 66.931, 67.206
18.077, 66.955, 66.453
18.340, 67.009, 65.682
18.607, 67.086, 64.787
18.877, 67.173, 63.686
19.152, 67.249, 62.355
19.431, 67.294, 60.882
19.713, 67.301, 59.408
20.000, 67.280, 58.062
20.291, 67.245, 56.919
20.586, 67.220, 55.969
20.885, 67.218, 55.107
21.189, 67.240, 54.186
21.497, 67.268, 53.104
21.810, 67.281, 51.870
22.127, 67.263, 50.595
22.449, 67.215, 49.428
22.776, 67.150, 48.486
23.107, 67.094, 47.788
23.443, 67.065, 47.249
23.784, 67.069, 46.721
24.130, 67.095, 46.086
24.481, 67.125, 45.304
24.837, 67.145, 44.422
25.198, 67.151, 43.522
25.565, 67.148, 42.661
25.937, 67.143, 41.843
26.314, 67.139, 41.028
26.697, 67.134, 40.178
27.085, 67.118, 39.298
27.479, 67.086, 38.448
27.879, 67.045, 37.699
28.284, 67.007, 37.063
28.696, 66.985, 36.471
29.113, 66.976, 35.810
29.537, 66.963, 35.030
29.966, 66.930, 34.210
30.402, 66.880, 33.484
30.844, 66.833, 32.905
31.293, 66.806, 32.370
31.748, 66.792, 31.725
32.210, 66.763, 30.949
32.678, 66.704, 30.206
33.154, 66.627, 29.661
33.636, 66.558, 29.308
34.125, 66.504, 29.007
34.621, 66.446, 28.704
35.125, 66.373, 28.511
35.636, 66.301, 28.529
36.154, 66.245, 28.705
36.680, 66.202, 28.979
37.214, 66.167, 29.474
37.755, 66.187, 30.311
38.304, 66.325, 31.193
38.861, 66.575, 31.418
39.427, 66.835, 30.596
40.000, 67.001, 28.990
40.582, 67.044, 27.245
41.172, 67.001, 25.784
41.771, 66.914, 24.705
42.379, 66.803, 24.016
42.995, 66.687, 23.795
43.620, 66.599, 24.020
44.255, 66.557, 24.581
44.898, 66.584, 25.467
45.552, 66.746, 26.434
46.214, 67.055, 26.609
46.886, 67.368, 25.306
47.568, 67.526, 23.023
48.260, 67.523, 20.782
48.962, 67.449, 18.890
49.674, 67.329, 17.159
50.397, 67.150, 15.763
51.130, 66.958, 14.898
51.874, 66.787, 14.339
52.628, 66.618, 14.013
53.394, 66.468, 13.974
54.170, 66.336, 13.939
54.958, 66.154, 13.996
55.758, 65.943, 14.744
56.569, 65.804, 16.010
57.391, 65.694, 17.307
58.226, 65.575, 19.395
59.073, 65.663, 22.633
59.932, 66.085, 25.407
60.804, 66.686, 26.613
61.688, 67.356, 26.062
62.586, 67.934, 23.446
63.496, 68.229, 19.701
64.420, 68.280, 16.344
65.357, 68.225, 13.718
66.307, 68.119, 11.586
67.272, 67.976, 9.874
68.250, 67.821, 8.584
69.243, 67.681, 7.557
70.250, 67.544, 6.668
71.272, 67.417, 5.974
72.309, 67.301, 5.344
73.360, 67.182, 4.846
74.427, 67.076, 4.457
75.510, 66.964, 4.145
76.608, 66.875, 4.021
77.723, 66.804, 3.793
78.853, 66.735, 3.659
80.000, 66.702, 3.417
81.164, 66.647, 2.983
82.344, 66.579, 2.668
83.542, 66.515, 2.368
84.757, 66.440, 2.134
85.990, 66.376, 2.005
87.241, 66.312, 1.863
88.510, 66.252, 1.766
89.797, 66.186, 1.718
91.103, 66.149, 1.728
92.428, 66.108, 1.607
93.773, 66.082, 1.577
95.137, 66.072, 1.382
96.520, 66.047, 1.104
97.924, 66.000, 0.866
99.349, 65.967, 0.794
100.794, 65.939, 0.470
102.260, 65.879, 0.151
103.747, 65.805, -0.053
105.256, 65.754, 0.041
106.787, 65.742, -0.085
108.340, 65.680, -0.197
109.916, 65.627, -0.163
111.515, 65.571, -0.153
113.137, 65.523, -0.205
114.783, 65.474, -0.226
116.452, 65.435, -0.196
118.146, 65.404, -0.223
119.865, 65.352, -0.165
121.608, 65.316, -0.114
123.377, 65.298, -0.128
125.171, 65.249, -0.255
126.992, 65.217, -0.059
128.839, 65.182, 0.024
130.713, 65.153, 0.126
132.615, 65.111, 0.132
134.543, 65.079, 0.188
136.500, 65.052, 0.248
138.486, 65.030, 0.342
140.500, 64.997, 0.380
142.544, 64.966, 0.479
144.617, 64.940, 0.539
146.721, 64.918, 0.621
148.855, 64.894, 0.696
151.020, 64.869, 0.838
153.217, 64.855, 0.902
155.445, 64.824, 0.939
157.706, 64.817, 1.107
160.000, 64.798, 1.114
162.327, 64.758, 1.349
164.688, 64.730, 1.543
167.084, 64.707, 1.666
169.514, 64.683, 1.704
171.980, 64.663, 1.901
174.481, 64.668, 2.101
177.019, 64.655, 2.298
179.594, 64.648, 2.417
182.206, 64.635, 2.458
184.856, 64.615, 2.561
187.545, 64.596, 2.763
190.273, 64.582, 2.855
193.041, 64.581, 2.997
195.849, 64.583, 3.191
198.697, 64.572, 3.538
201.587, 64.575, 3.666
204.520, 64.552, 3.704
207.494, 64.540, 3.839
210.512, 64.530, 3.995
213.574, 64.528, 4.320
216.681, 64.542, 4.430
219.833, 64.533, 4.481
223.030, 64.524, 4.690
226.274, 64.524, 4.940
229.565, 64.528, 5.142
232.905, 64.543, 5.272
236.292, 64.557, 5.442
239.729, 64.555, 5.670
243.216, 64.559, 5.832
246.754, 64.582, 5.952
250.343, 64.563, 6.143
253.984, 64.576, 6.426
257.678, 64.600, 6.468
261.426, 64.630, 6.513
265.229, 64.645, 6.553
269.087, 64.656, 6.681
273.001, 64.655, 6.801
276.972, 64.656, 6.925
281.000, 64.656, 7.120
285.088, 64.668, 7.396
289.234, 64.696, 7.627
293.441, 64.724, 7.728
297.710, 64.743, 7.801
302.040, 64.772, 7.937
306.433, 64.810, 8.032
310.890, 64.827, 8.165
315.412, 64.867, 8.240
320.000, 64.897, 8.180
324.655, 64.919, 8.090
329.377, 64.936, 8.140
334.168, 64.963, 8.097
339.028, 64.967, 8.039
343.959, 64.990, 8.150
348.962, 65.018, 8.058
354.038, 65.038, 7.894
359.188, 65.060, 7.853
364.412, 65.064, 7.736
369.713, 65.081, 7.572
375.090, 65.093, 7.309
380.546, 65.079, 7.020
386.081, 65.047, 6.835
391.697, 65.019, 6.686
397.395, 65.004, 6.455
403.175, 64.926, 6.404
409.039, 64.867, 6.319
414.989, 64.780, 6.227
421.025, 64.659, 6.321
427.149, 64.526, 6.797
433.362, 64.408, 7.738
439.665, 64.377, 9.091
446.060, 64.423, 10.366
452.548, 64.529, 11.281
459.131, 64.652, 11.782
465.809, 64.749, 12.067
472.584, 64.832, 12.165
479.458, 64.897, 12.318
486.432, 64.952, 12.366
493.507, 65.012, 12.526
500.686, 65.108, 12.565
507.968, 65.170, 12.423
515.357, 65.204, 12.325
522.853, 65.246, 12.274
530.458, 65.293, 12.202
538.174, 65.328, 11.914
546.002, 65.308, 11.826
553.943, 65.327, 12.092
562.001, 65.386, 12.161
570.175, 65.441, 12.013
578.469, 65.463, 11.814
586.883, 65.489, 11.753
595.419, 65.518, 11.628
604.080, 65.552, 11.599
612.866, 65.605, 11.417
621.780, 65.657, 11.149
630.824, 65.711, 10.592
640.000, 65.737, 9.918
649.309, 65.716, 9.026
658.753, 65.656, 8.300
668.335, 65.570, 7.396
678.056, 65.427, 6.753
687.919, 65.235, 6.121
697.925, 64.984, 5.838
708.076, 64.683, 6.204
718.376, 64.339, 7.530
728.825, 64.075, 10.099
739.426, 64.048, 13.228
750.181, 64.223, 15.927
761.093, 64.530, 17.609
772.163, 64.826, 18.092
783.394, 65.048, 18.043
794.789, 65.191, 17.698
806.349, 65.282, 17.516
818.078, 65.361, 17.335
829.977, 65.390, 17.275
842.050, 65.468, 17.573
854.297, 65.566, 17.562
866.724, 65.651, 17.396
879.330, 65.717, 17.303
892.120, 65.830, 17.102
905.097, 65.895, 16.302
918.262, 65.898, 15.817
931.618, 65.905, 15.333
945.169, 65.882, 14.798
958.917, 65.827, 14.279
972.864, 65.723, 14.016
987.015, 65.623, 14.442
1001.371, 65.618, 14.638
1015.937, 65.573, 14.880
1030.714, 65.559, 14.967
1045.706, 65.483, 15.158
1060.916, 65.435, 15.627
1076.347, 65.363, 16.263
1092.003, 65.348, 17.170
1107.887, 65.394, 18.144
1124.001, 65.500, 18.995
1140.350, 65.616, 19.297
1156.937, 65.759, 19.575
1173.765, 65.894, 19.180
1190.838, 65.944, 18.732
1208.159, 66.039, 18.102
1225.732, 66.002, 17.379
1243.561, 66.001, 16.937
1261.649, 65.940, 16.032
1280.000, 65.820, 15.640
1298.618, 65.703, 15.311
1317.507, 65.554, 14.999
1336.670, 65.350, 15.041
1356.113, 65.142, 15.401
1375.838, 64.973, 16.131
1395.850, 64.743, 16.507
1416.153, 64.451, 17.912
1436.751, 64.253, 19.679
1457.649, 64.000, 21.965
1478.851, 63.846, 25.367
1500.362, 63.949, 29.169
1522.185, 64.170, 31.938
1544.326, 64.425, 34.442
1566.789, 64.798, 36.216
1589.578, 65.047, 36.960
1612.699, 65.281, 38.399
1636.156, 65.602, 39.172
1659.955, 65.778, 39.625
1684.099, 66.038, 40.849
1708.595, 66.322, 40.988
1733.447, 66.526, 41.519
1758.661, 66.809, 41.818
1784.241, 67.012, 41.542
1810.193, 67.158, 42.013
1836.523, 67.411, 42.120
1863.236, 67.501, 42.225
1890.338, 67.794, 43.060
1917.833, 67.989, 42.643
1945.729, 68.266, 43.226
1974.030, 68.485, 42.164
2002.743, 68.655, 42.124
2031.873, 68.814, 41.424
2061.428, 68.894, 41.165
2091.412, 69.013, 41.162
2121.832, 69.086, 41.162
2152.695, 69.231, 41.750
2184.007, 69.346, 42.118
2215.774, 69.582, 42.856
2248.003, 69.804, 43.199
2280.701, 70.083, 43.434
2313.874, 70.335, 43.319
2347.530, 70.587, 43.585
2381.676, 70.903, 43.429
2416.318, 71.266, 43.005
2451.464, 71.511, 41.937
2487.122, 71.760, 41.215
2523.298, 71.990, 40.692
2560.000, 72.261, 39.978
2597.236, 72.544, 39.329
2635.014, 72.845, 38.283
2673.341, 73.158, 37.101
2712.226, 73.442, 35.564
2751.676, 73.713, 33.828
2791.700, 73.977, 31.926
2832.306, 74.192, 29.655
2873.503, 74.347, 27.190
2915.299, 74.426, 24.892
2957.703, 74.474, 22.922
3000.724, 74.532, 21.128
3044.370, 74.601, 19.375
3088.652, 74.681, 17.573
3133.577, 74.748, 15.504
3179.156, 74.773, 13.421
3225.398, 74.785, 11.390
3272.312, 74.762, 9.267
3319.909, 74.691, 7.253
3368.198, 74.597, 5.531
3417.190, 74.510, 4.138
3466.894, 74.452, 2.890
3517.321, 74.433, 1.630
3568.482, 74.446, 0.138
3620.387, 74.459, -1.725
3673.046, 74.425, -4.000
3726.472, 74.298, -6.421
3780.675, 74.087, -8.530
3835.666, 73.839, -10.166
3891.457, 73.586, -11.288
3948.060, 73.381, -11.989
4005.486, 73.256, -12.645
4063.747, 73.180, -13.829
4122.855, 73.046, -15.536
4182.824, 72.823, -17.358
4243.664, 72.504, -18.975
4305.390, 72.098, -20.095
4368.013, 71.628, -20.196
4431.547, 71.235, -18.987
4496.005, 71.017, -17.295
4561.401, 70.948, -15.704
4627.749, 70.998, -14.597
4695.061, 71.103, -14.181
4763.352, 71.216, -14.517
4832.637, 71.263, -15.415
4902.929, 71.246, -16.503
4974.244, 71.153, -17.732
5046.596, 70.956, -18.671
5120.000, 70.730, -18.813
5194.472, 70.555, -18.489
5270.027, 70.409, -17.850
5346.682, 70.341, -16.586
5424.451, 70.454, -15.241
5503.352, 70.710, -14.628
5583.399, 71.059, -15.178
5664.612, 71.357, -17.302
5747.006, 71.471, -20.494
5830.598, 71.334, -23.662
5915.406, 71.053, -25.774
6001.447, 70.787, -26.689
6088.740, 70.667, -27.377
6177.303, 70.580, -28.795
6267.154, 70.399, -30.639
6358.312, 70.101, -32.065
6450.796, 69.785, -32.827
6544.625, 69.489, -32.933
6639.818, 69.302, -32.527
6736.397, 69.257, -32.406
6834.380, 69.270, -33.163
6933.789, 69.211, -34.730
7034.643, 69.014, -36.052
7136.964, 68.876, -36.402
7240.773, 68.941, -37.334
7346.093, 68.979, -40.052
7452.944, 68.743, -43.421
7561.350, 68.308, -45.385
7671.332, 67.993, -45.732
7782.915, 67.921, -46.290
7896.120, 67.927, -47.582
8010.971, 68.083, -49.158
8127.493, 68.470, -52.533
8245.711, 68.827, -58.926
8365.647, 69.022, -67.562
8487.328, 68.974, -78.570
8610.779, 68.615, -90.953
8736.026, 68.132, -105.065
8863.095, 67.295, -121.867
8992.011, 66.234, -139.442
9122.803, 65.252, -158.534
9255.497, 64.523, 179.887
9390.121, 63.866, 157.971
9526.704, 63.692, 139.859
9665.273, 64.319, 123.826
9805.857, 65.189, 108.318
9948.487, 66.045, 94.342
10093.191, 66.814, 81.474
10240.000, 67.414, 69.846
10388.944, 67.991, 58.576
10540.055, 68.162, 45.973
10693.363, 67.720, 35.460
10848.902, 67.023, 28.357
11006.703, 66.252, 24.772
11166.799, 65.707, 24.499
11329.224, 65.695, 25.328
11494.012, 65.966, 24.391
11661.195, 66.242, 22.576
11830.812, 66.621, 20.408
12002.895, 67.303, 16.803
12177.480, 67.914, 7.876
12354.606, 67.643, -3.386
12534.309, 66.835, -11.868
12716.624, 65.874, -18.492
12901.592, 64.904, -22.646
13089.250, 64.383, -27.179
13279.637, 63.999, -35.917
13472.794, 63.228, -48.090
13668.760, 62.015, -64.386
13867.577, 60.776, -86.987
14069.285, 59.995, -123.307
14273.928, 59.605, -167.367
14481.547, 60.932, 151.847
14692.186, 62.064, 118.392
14905.889, 62.499, 93.951
15122.700, 62.196, 80.596
15342.664, 62.378, 72.390
15565.829, 62.201, 65.019
15792.239, 61.881, 63.148
16021.942, 62.029, 60.355
16254.986, 61.680, 59.793
16491.422, 62.324, 63.560
16731.295, 63.474, 60.152
16974.656, 64.001, 52.718
17221.559, 64.230, 44.722
17472.053, 63.748, 34.536
17726.189, 62.507, 28.741
17984.021, 61.425, 23.474
18245.605, 60.232, 21.860
18510.994, 58.742, 25.327
18780.242, 57.731, 34.508
19053.408, 58.165, 41.563
19330.547, 58.892, 40.477
19611.715, 58.637, 32.046
19896.975, 57.446, 27.476
