* Measurement data measured by REW V5.19
* Source: In 1-2 (MOTU M Series), no input selected, L, volume: no control
* Format: 1M Log Swept Sine, 1 sweep at -3.0 dBFS  With no timing reference
* Dated: 16 Dec, 2020 7:50:21 PM
* REW Settings:
*  C-weighting compensation: Off
*  Target level: 75.0 dB
* Note: ; 
* Measurement: Dec 16 19:50:21
* Smoothing: 1/48 octave
* Frequency Step: 1/48 octave
* Start Frequency: 10.1 Hz
*
* Freq(Hz), SPL(dB), Phase(degrees)
10.145, 69.345, 120.569
10.293, 69.452, 119.373
10.443, 69.563, 117.744
10.595, 69.733, 115.585
10.749, 69.909, 113.305
10.905, 70.041, 111.506
11.064, 70.155, 109.865
11.225, 70.274, 108.027
11.388, 70.391, 106.114
11.554, 70.496, 104.307
11.722, 70.591, 102.584
11.892, 70.682, 100.949
12.065, 70.770, 99.395
12.241, 70.862, 97.880
12.419, 70.960, 96.415
12.599, 71.064, 95.022
12.782, 71.175, 93.654
12.968, 71.298, 92.239
13.157, 71.426, 90.777
13.348, 71.558, 89.259
13.543, 71.688, 87.655
13.740, 71.812, 85.956
13.939, 71.925, 84.186
14.142, 72.023, 82.364
14.348, 72.103, 80.522
14.557, 72.167, 78.699
14.768, 72.216, 76.916
14.983, 72.256, 75.212
15.201, 72.292, 73.582
15.422, 72.328, 72.026
15.646, 72.369, 70.512
15.874, 72.416, 69.016
16.105, 72.469, 67.509
16.339, 72.522, 65.971
16.577, 72.572, 64.412
16.818, 72.617, 62.847
17.063, 72.654, 61.314
17.311, 72.688, 59.847
17.563, 72.725, 58.457
17.818, 72.769, 57.141
18.077, 72.827, 55.859
18.340, 72.899, 54.556
18.607, 72.979, 53.191
18.877, 73.061, 51.740
19.152, 73.135, 50.208
19.431, 73.194, 48.644
19.713, 73.238, 47.108
20.000, 73.269, 45.644
20.291, 73.296, 44.271
20.586, 73.324, 42.974
20.885, 73.358, 41.713
21.189, 73.395, 40.443
21.497, 73.429, 39.145
21.810, 73.453, 37.838
22.127, 73.467, 36.569
22.449, 73.473, 35.383
22.776, 73.480, 34.303
23.107, 73.497, 33.310
23.443, 73.532, 32.352
23.784, 73.583, 31.364
24.130, 73.645, 30.300
24.481, 73.711, 29.151
24.837, 73.773, 27.939
25.198, 73.830, 26.707
25.565, 73.882, 25.497
25.937, 73.935, 24.336
26.314, 73.993, 23.225
26.697, 74.060, 22.143
27.085, 74.136, 21.058
27.479, 74.217, 19.943
27.879, 74.294, 18.795
28.284, 74.362, 17.651
28.696, 74.419, 16.568
29.113, 74.469, 15.606
29.537, 74.525, 14.778
29.966, 74.600, 14.020
30.402, 74.695, 13.211
30.844, 74.798, 12.236
31.293, 74.886, 11.066
31.748, 74.942, 9.778
32.210, 74.962, 8.496
32.678, 74.958, 7.303
33.154, 74.941, 6.195
33.636, 74.916, 5.126
34.125, 74.882, 4.070
34.621, 74.841, 3.019
35.125, 74.795, 1.932
35.636, 74.735, 0.761
36.154, 74.645, -0.452
36.680, 74.523, -1.557
37.214, 74.390, -2.453
37.755, 74.268, -3.228
38.304, 74.151, -4.026
38.861, 74.014, -4.806
39.427, 73.860, -5.380
40.000, 73.719, -5.700
40.582, 73.602, -5.916
41.172, 73.496, -6.074
41.771, 73.405, -6.078
42.379, 73.354, -5.990
42.995, 73.343, -6.069
43.620, 73.336, -6.393
44.255, 73.320, -6.859
44.898, 73.300, -7.513
45.552, 73.252, -8.472
46.214, 73.142, -9.637
46.886, 72.962, -10.854
47.568, 72.695, -12.026
48.260, 72.320, -12.723
48.962, 71.917, -12.377
49.674, 71.638, -11.367
50.397, 71.478, -10.829
51.130, 71.276, -10.925
51.874, 70.985, -10.726
52.628, 70.716, -9.779
53.394, 70.555, -8.471
54.170, 70.510, -7.232
54.958, 70.553, -6.459
55.758, 70.598, -6.170
56.569, 70.637, -5.821
57.391, 70.734, -5.640
58.226, 70.791, -5.912
59.073, 70.797, -5.714
59.932, 70.909, -5.368
60.804, 71.025, -5.848
61.688, 71.058, -6.359
62.586, 71.108, -7.008
63.496, 71.064, -8.077
64.420, 70.978, -8.539
65.357, 70.968, -9.507
66.307, 70.768, -11.033
67.272, 70.505, -11.236
68.250, 70.331, -11.930
69.243, 69.904, -12.286
70.250, 69.602, -10.631
71.272, 69.457, -10.250
72.309, 69.107, -9.316
73.360, 68.967, -7.320
74.427, 68.939, -6.302
75.510, 68.918, -5.284
76.608, 69.043, -4.309
77.723, 69.280, -4.384
78.853, 69.455, -5.217
80.000, 69.613, -6.126
81.164, 69.742, -7.218
82.344, 69.860, -8.445
83.542, 69.897, -9.843
84.757, 69.906, -10.923
85.990, 69.882, -12.093
87.241, 69.804, -13.026
88.510, 69.695, -13.610
89.797, 69.601, -14.087
91.103, 69.430, -14.601
92.428, 69.243, -14.725
93.773, 69.020, -14.944
95.137, 68.759, -14.766
96.520, 68.527, -14.328
97.924, 68.316, -13.756
99.349, 68.128, -12.937
100.794, 67.986, -11.918
102.260, 67.891, -10.920
103.747, 67.821, -10.138
105.256, 67.758, -9.593
106.787, 67.707, -9.230
108.340, 67.655, -9.106
109.916, 67.596, -8.957
111.515, 67.515, -8.646
113.137, 67.465, -8.202
114.783, 67.390, -7.761
116.452, 67.320, -7.092
118.146, 67.307, -6.434
119.865, 67.278, -5.907
121.608, 67.278, -5.427
123.377, 67.246, -5.031
125.171, 67.228, -4.616
126.992, 67.234, -4.320
128.839, 67.228, -4.075
130.713, 67.248, -3.742
132.615, 67.247, -3.511
134.543, 67.243, -3.380
136.500, 67.228, -3.356
138.486, 67.221, -3.365
140.500, 67.212, -3.450
142.544, 67.184, -3.533
144.617, 67.150, -3.604
146.721, 67.107, -3.703
148.855, 67.045, -3.687
151.020, 66.983, -3.545
153.217, 66.910, -3.524
155.445, 66.818, -3.471
157.706, 66.735, -3.419
160.000, 66.643, -3.267
162.327, 66.560, -3.045
164.688, 66.476, -2.858
167.084, 66.387, -2.595
169.514, 66.303, -2.253
171.980, 66.218, -1.873
174.481, 66.141, -1.443
177.019, 66.071, -0.962
179.594, 66.008, -0.443
182.206, 65.949, 0.051
184.856, 65.900, 0.559
187.545, 65.859, 1.103
190.273, 65.822, 1.709
193.041, 65.802, 2.320
195.849, 65.799, 2.890
198.697, 65.795, 3.394
201.587, 65.782, 3.871
204.520, 65.767, 4.378
207.494, 65.755, 4.877
210.512, 65.747, 5.356
213.574, 65.746, 5.866
216.681, 65.751, 6.313
219.833, 65.755, 6.729
223.030, 65.772, 7.140
226.274, 65.798, 7.560
229.565, 65.825, 7.930
232.905, 65.858, 8.254
236.292, 65.894, 8.559
239.729, 65.930, 8.820
243.216, 65.964, 9.067
246.754, 65.996, 9.295
250.343, 66.025, 9.528
253.984, 66.059, 9.770
257.678, 66.093, 10.001
261.426, 66.129, 10.170
265.229, 66.165, 10.326
269.087, 66.206, 10.423
273.001, 66.239, 10.402
276.972, 66.261, 10.324
281.000, 66.264, 10.209
285.088, 66.252, 10.120
289.234, 66.227, 10.068
293.441, 66.194, 10.048
297.710, 66.154, 10.090
302.040, 66.108, 10.193
306.433, 66.055, 10.399
310.890, 66.004, 10.771
315.412, 65.964, 11.193
320.000, 65.929, 11.686
324.655, 65.895, 12.237
329.377, 65.873, 12.839
334.168, 65.866, 13.502
339.028, 65.863, 14.226
343.959, 65.868, 14.959
348.962, 65.880, 15.654
354.038, 65.897, 16.343
359.188, 65.915, 17.017
364.412, 65.935, 17.685
369.713, 65.960, 18.323
375.090, 65.989, 18.957
380.546, 66.025, 19.585
386.081, 66.071, 20.201
391.697, 66.130, 20.716
397.395, 66.190, 21.102
403.175, 66.255, 21.350
409.039, 66.324, 21.539
414.989, 66.390, 21.673
421.025, 66.455, 21.783
427.149, 66.517, 21.860
433.362, 66.572, 21.911
439.665, 66.616, 22.018
446.060, 66.659, 22.220
452.548, 66.694, 22.524
459.131, 66.717, 22.849
465.809, 66.729, 23.121
472.584, 66.727, 23.311
479.458, 66.723, 23.511
486.432, 66.718, 23.736
493.507, 66.721, 24.009
500.686, 66.729, 24.295
507.968, 66.739, 24.582
515.357, 66.752, 24.887
522.853, 66.770, 25.196
530.458, 66.791, 25.519
538.174, 66.818, 25.830
546.002, 66.855, 26.109
553.943, 66.891, 26.363
562.001, 66.928, 26.641
570.175, 66.956, 26.946
578.469, 66.992, 27.206
586.883, 67.029, 27.492
595.419, 67.071, 27.772
604.080, 67.120, 28.025
612.866, 67.174, 28.224
621.780, 67.234, 28.370
630.824, 67.292, 28.481
640.000, 67.349, 28.577
649.309, 67.397, 28.639
658.753, 67.434, 28.687
668.335, 67.477, 28.843
678.056, 67.536, 28.856
687.919, 67.595, 28.662
697.925, 67.665, 28.533
708.076, 67.726, 28.376
718.376, 67.775, 28.196
728.825, 67.811, 27.951
739.426, 67.833, 27.671
750.181, 67.844, 27.395
761.093, 67.846, 27.124
772.163, 67.843, 26.894
783.394, 67.835, 26.681
794.789, 67.824, 26.494
806.349, 67.811, 26.303
818.078, 67.794, 26.090
829.977, 67.764, 25.910
842.050, 67.725, 25.926
854.297, 67.678, 26.247
866.724, 67.612, 26.710
879.330, 67.545, 27.225
892.120, 67.479, 27.807
905.097, 67.416, 28.448
918.262, 67.356, 29.155
931.618, 67.297, 29.962
945.169, 67.248, 30.826
958.917, 67.204, 31.536
972.864, 67.156, 32.041
987.015, 67.123, 32.474
1001.371, 67.096, 32.908
1015.937, 67.068, 33.359
1030.714, 67.041, 33.827
1045.706, 67.017, 34.306
1060.916, 66.989, 34.854
1076.347, 66.966, 35.410
1092.003, 66.960, 35.942
1107.887, 66.964, 36.423
1124.001, 66.972, 36.844
1140.350, 66.979, 37.196
1156.937, 66.978, 37.526
1173.765, 66.969, 37.894
1190.838, 66.967, 38.295
1208.159, 66.976, 38.690
1225.732, 66.991, 39.031
1243.561, 67.005, 39.362
1261.649, 67.020, 39.626
1280.000, 67.031, 39.830
1298.618, 67.030, 39.985
1317.507, 67.015, 40.176
1336.670, 66.993, 40.418
1356.113, 66.969, 40.733
1375.838, 66.949, 41.088
1395.850, 66.928, 41.504
1416.153, 66.909, 41.957
1436.751, 66.894, 42.461
1457.649, 66.881, 43.082
1478.851, 66.879, 44.140
1500.362, 66.876, 45.562
1522.185, 66.881, 47.027
1544.326, 66.889, 48.552
1566.789, 66.910, 50.118
1589.578, 66.938, 51.691
1612.699, 66.962, 52.863
1636.156, 66.985, 53.674
1659.955, 67.018, 54.589
1684.099, 67.084, 55.449
1708.595, 67.147, 56.234
1733.447, 67.206, 57.011
1758.661, 67.272, 57.800
1784.241, 67.340, 58.653
1810.193, 67.423, 59.575
1836.523, 67.533, 60.493
1863.236, 67.646, 61.469
1890.338, 67.787, 62.382
1917.833, 67.956, 63.213
1945.729, 68.141, 63.915
1974.030, 68.339, 64.454
2002.743, 68.544, 64.819
2031.873, 68.738, 65.088
2061.428, 68.929, 65.232
2091.412, 69.118, 65.323
2121.832, 69.310, 65.365
2152.695, 69.505, 65.319
2184.007, 69.707, 65.174
2215.774, 69.904, 64.936
2248.003, 70.087, 64.668
2280.701, 70.282, 64.274
2313.874, 70.477, 63.758
2347.530, 70.664, 63.122
2381.676, 70.841, 62.385
2416.318, 71.012, 61.578
2451.464, 71.179, 60.673
2487.122, 71.318, 59.763
2523.298, 71.455, 58.765
2560.000, 71.586, 57.728
2597.236, 71.709, 56.639
2635.014, 71.820, 55.517
2673.341, 71.926, 54.342
2712.226, 72.026, 53.105
2751.676, 72.123, 51.764
2791.700, 72.202, 50.368
2832.306, 72.270, 48.876
2873.503, 72.323, 47.321
2915.299, 72.357, 45.731
2957.703, 72.377, 44.139
3000.724, 72.386, 42.516
3044.370, 72.383, 40.845
3088.652, 72.363, 39.144
3133.577, 72.338, 37.409
3179.156, 72.284, 35.670
3225.398, 72.208, 33.916
3272.312, 72.121, 32.168
3319.909, 72.016, 30.440
3368.198, 71.884, 29.050
3417.190, 71.750, 28.799
3466.894, 71.597, 29.076
3517.321, 71.443, 29.081
3568.482, 71.257, 27.955
3620.387, 71.046, 26.401
3673.046, 70.797, 24.872
3726.472, 70.475, 23.646
3780.675, 70.129, 22.903
3835.666, 69.804, 22.720
3891.457, 69.537, 22.926
3948.060, 69.340, 23.259
4005.486, 69.209, 23.488
4063.747, 69.112, 23.531
4122.855, 69.048, 23.322
4182.824, 68.996, 22.851
4243.664, 68.948, 22.068
4305.390, 68.888, 20.958
4368.013, 68.798, 19.536
4431.547, 68.652, 17.828
4496.005, 68.407, 16.029
4561.401, 68.077, 14.464
4627.749, 67.691, 13.308
4695.061, 67.259, 12.495
4763.352, 66.756, 12.313
4832.637, 66.223, 13.282
4902.929, 65.780, 15.606
4974.244, 65.547, 18.925
5046.596, 65.621, 22.263
5120.000, 65.961, 24.492
5194.472, 66.431, 24.838
5270.027, 66.861, 23.122
5346.682, 67.082, 19.701
5424.451, 66.985, 15.762
5503.352, 66.613, 12.597
5583.399, 66.042, 11.094
5664.612, 65.458, 11.442
5747.006, 65.000, 13.394
5830.598, 64.756, 16.407
5915.406, 64.782, 19.850
6001.447, 65.102, 22.944
6088.740, 65.677, 24.935
6177.303, 66.433, 25.212
6267.154, 67.269, 23.298
6358.312, 68.041, 18.969
6450.796, 68.603, 12.438
6544.625, 68.838, 4.431
6639.818, 68.704, -3.997
6736.397, 68.236, -11.959
6834.380, 67.502, -18.994
6933.789, 66.548, -24.823
7034.643, 65.415, -29.114
7136.964, 64.188, -31.731
7240.773, 62.895, -33.318
7346.093, 61.297, -33.519
7452.944, 59.199, -27.388
7561.350, 57.875, -11.178
7671.332, 58.692, 4.289
7782.915, 60.129, 11.175
7896.120, 61.339, 13.351
8010.971, 62.351, 13.713
8127.493, 63.259, 13.505
8245.711, 64.252, 13.220
8365.647, 65.457, 11.808
8487.328, 66.761, 8.143
8610.779, 68.061, 2.475
8736.026, 69.550, -5.316
8863.095, 70.874, -18.723
8992.011, 71.632, -35.878
9122.803, 71.556, -55.872
9255.497, 70.255, -72.119
9390.121, 68.041, -81.013
9526.704, 65.564, -83.664
9665.273, 63.074, -82.064
9805.857, 60.453, -76.498
9948.487, 57.478, -63.841
10093.191, 54.645, -35.486
10240.000, 55.879, 5.936
10388.944, 61.118, 32.155
10540.055, 66.331, 33.575
10693.363, 69.625, 14.839
10848.902, 70.266, -8.705
11006.703, 69.517, -22.868
11166.799, 68.886, -32.285
11329.224, 67.897, -44.376
11494.012, 65.443, -52.437
11661.195, 62.226, -45.167
11830.812, 60.870, -25.959
12002.895, 62.011, -13.380
12177.480, 63.141, -11.712
12354.606, 63.660, -14.163
12534.309, 63.672, -17.625
12716.624, 63.268, -20.371
12901.592, 62.668, -21.032
13089.250, 62.221, -20.324
13279.637, 61.921, -20.500
13472.794, 61.495, -21.594
13668.760, 60.946, -22.130
13867.577, 60.563, -22.266
14069.285, 60.359, -25.196
14273.928, 59.857, -32.291
14481.547, 58.647, -43.100
14692.186, 56.380, -58.137
14905.889, 52.477, -86.184
15122.700, 48.449, -153.678
15342.664, 53.234, 134.087
15565.829, 57.898, 99.095
15792.239, 60.607, 76.614
16021.942, 61.978, 58.257
16254.986, 62.747, 44.686
16491.422, 63.933, 31.300
16731.295, 64.565, 7.627
16974.656, 62.733, -15.897
17221.559, 59.888, -25.188
17472.053, 57.528, -27.884
17726.189, 55.708, -25.304
17984.021, 54.926, -21.573
18245.605, 55.118, -21.179
18510.994, 56.078, -33.625
18780.242, 56.593, -55.887
19053.408, 56.740, -79.049
19330.547, 57.087, -99.804
19611.715, 57.575, -120.367
19896.975, 58.001, -142.965
