* Measurement data measured by REW V5.20.5
* Source: Input device not selected, no input selected, R, volume: no control
* Format: 512k Log Swept Sine, 1 sweep at -12.0 dBFS with no timing reference
* Dated: Apr 12, 2022 5:04:18 AM
* REW Settings:
*  C-weighting compensation: Off
*  Target level: 75.0 dB
* Note: ; 
* Measurement: ssr R
* Smoothing: 1/12 octave
* Frequency Step: 1/48 octave
* Start Frequency: 20.000 Hz
*
* Freq(Hz)	SPL(dB)	Phase(degrees)
20.000000	103.230	-102.5424
20.299999	103.329	-103.2509
20.600000	103.420	-103.9736
20.900000	103.499	-104.6746
21.200001	103.570	-105.2986
21.400000	103.617	-105.6513
21.799999	103.725	-106.2328
22.000000	103.791	-106.4971
22.400000	103.951	-107.0927
22.700001	104.085	-107.6935
23.000000	104.214	-108.4711
23.299999	104.324	-109.3842
23.600000	104.410	-110.3532
24.000000	104.488	-111.5889
24.299999	104.530	-112.3934
24.700001	104.583	-113.2899
25.000000	104.629	-113.8776
25.400000	104.699	-114.6274
25.799999	104.770	-115.3798
26.200001	104.834	-116.1031
26.500000	104.880	-116.5932
26.900000	104.944	-117.1656
27.200001	105.000	-117.5598
27.600000	105.086	-118.0974
28.000000	105.176	-118.7029
28.500000	105.281	-119.5563
29.000000	105.367	-120.4351
29.500000	105.443	-121.2762
30.000000	105.514	-122.0880
30.400000	105.569	-122.7387
30.700001	105.607	-123.2280
31.100000	105.653	-123.8654
31.500000	105.698	-124.4669
32.000000	105.758	-125.1628
32.500000	105.831	-125.8391
33.000000	105.916	-126.5761
33.500000	106.005	-127.4332
34.000000	106.080	-128.4047
34.500000	106.130	-129.3986
35.000000	106.152	-130.2829
35.500000	106.163	-130.9485
36.000000	106.181	-131.3831
36.500000	106.222	-131.6645
37.000000	106.288	-131.9115
37.500000	106.372	-132.2156
38.200001	106.494	-132.8154
38.700001	106.567	-133.3515
39.500000	106.644	-134.2167
40.000000	106.676	-134.6567
40.599998	106.714	-135.0649
41.200001	106.767	-135.4402
41.799999	106.829	-135.8918
42.500000	106.896	-136.5583
43.099998	106.940	-137.2025
43.700001	106.971	-137.8513
44.400002	106.998	-138.5602
45.000000	107.021	-139.1165
45.500000	107.044	-139.5634
46.200001	107.083	-140.2095
46.799999	107.116	-140.8140
47.500000	107.144	-141.5636
48.200001	107.153	-142.2602
48.700001	107.154	-142.6543
49.400002	107.168	-143.0497
50.000000	107.205	-143.3453
50.799999	107.274	-143.8603
51.500000	107.331	-144.4321
52.200001	107.376	-145.0103
53.000000	107.422	-145.6101
53.799999	107.469	-146.1741
54.500000	107.508	-146.6660
55.200001	107.541	-147.1503
56.000000	107.570	-147.6673
57.000000	107.601	-148.2438
58.000000	107.631	-148.7889
59.000000	107.659	-149.3376
60.000000	107.688	-149.9090
60.799999	107.709	-150.3982
61.500000	107.725	-150.8399
62.200001	107.737	-151.2735
63.000000	107.751	-151.7404
64.000000	107.773	-152.2792
65.000000	107.802	-152.7975
66.000000	107.834	-153.3272
67.000000	107.865	-153.8760
68.000000	107.890	-154.4293
69.000000	107.909	-154.9586
70.000000	107.926	-155.4538
71.000000	107.944	-155.9308
72.000000	107.962	-156.3972
73.000000	107.980	-156.8530
74.000000	107.997	-157.2967
75.000000	108.012	-157.7172
76.199997	108.027	-158.1880
77.500000	108.042	-158.6766
78.800003	108.056	-159.1728
80.000000	108.066	-159.6491
81.199997	108.076	-160.1337
82.500000	108.088	-160.6538
83.800003	108.101	-161.1699
85.000000	108.114	-161.6403
86.199997	108.124	-162.0979
87.500000	108.132	-162.5807
88.500000	108.136	-162.9348
90.000000	108.143	-163.4232
91.199997	108.153	-163.7795
92.500000	108.166	-164.1385
93.800003	108.175	-164.4638
95.000000	108.178	-164.7333
96.199997	108.174	-165.0018
97.500000	108.163	-165.3180
98.800003	108.152	-165.6626
100.000000	108.152	-166.0378
101.500000	108.163	-166.6425
103.000000	108.169	-167.2849
104.400002	108.174	-167.7935
106.000000	108.180	-168.2685
107.500000	108.183	-168.6516
109.000000	108.185	-169.0451
110.599998	108.182	-169.5533
112.000000	108.167	-170.0197
113.800003	108.143	-170.5005
115.000000	108.135	-170.7511
117.199997	108.132	-171.1883
118.000000	108.131	-171.3463
120.599998	108.129	-171.8298
122.000000	108.132	-172.0744
124.099998	108.148	-172.4371
125.000000	108.158	-172.6031
126.500000	108.172	-172.9084
128.000000	108.178	-173.2393
131.500000	108.159	-174.0032
132.000000	108.155	-174.1077
134.000000	108.136	-174.5194
136.000000	108.119	-174.9262
138.000000	108.104	-175.3164
140.000000	108.091	-175.6938
143.000000	108.074	-176.2557
145.000000	108.061	-176.6067
147.500000	108.041	-176.9911
150.000000	108.022	-177.3473
152.500000	108.005	-177.7271
155.000000	107.986	-178.1133
157.500000	107.961	-178.4801
160.000000	107.933	-178.8372
162.500000	107.908	-179.1930
165.000000	107.888	-179.5401
167.500000	107.871	-179.8754
170.000000	107.852	-180.2215
172.500000	107.833	-180.5807
175.000000	107.817	-180.9332
177.500000	107.806	-181.2685
180.000000	107.796	-181.5912
182.500000	107.781	-181.9100
185.000000	107.757	-182.2087
187.500000	107.728	-182.4665
190.000000	107.701	-182.7088
192.500000	107.677	-182.9710
195.000000	107.656	-183.2469
197.500000	107.639	-183.5121
200.000000	107.620	-183.7735
203.000000	107.591	-184.1194
206.000000	107.558	-184.4789
209.000000	107.524	-184.7846
212.000000	107.487	-185.0317
214.000000	107.461	-185.1839
218.000000	107.411	-185.4903
220.000000	107.388	-185.6511
224.000000	107.347	-186.0031
227.000000	107.317	-186.2786
230.000000	107.286	-186.5363
233.000000	107.252	-186.7704
236.000000	107.219	-186.9817
240.000000	107.180	-187.2276
243.000000	107.150	-187.4029
247.000000	107.100	-187.6465
250.000000	107.056	-187.8170
254.000000	106.997	-187.9883
258.000000	106.941	-188.0903
262.000000	106.887	-188.1553
265.000000	106.852	-188.1947
269.000000	106.816	-188.2438
272.000000	106.797	-188.2938
276.000000	106.778	-188.4181
280.000000	106.758	-188.6125
285.000000	106.732	-188.8712
290.000000	106.704	-189.1073
295.000000	106.674	-189.3337
300.000000	106.637	-189.5492
304.000000	106.599	-189.7189
307.000000	106.567	-189.8457
311.000000	106.522	-190.0045
315.000000	106.476	-190.1432
320.000000	106.421	-190.3039
325.000000	106.367	-190.4693
330.000000	106.316	-190.6295
335.000000	106.266	-190.7705
340.000000	106.218	-190.8867
345.000000	106.170	-190.9884
350.000000	106.122	-191.0818
355.000000	106.075	-191.1613
360.000000	106.030	-191.2285
365.000000	105.988	-191.2876
370.000000	105.945	-191.3332
375.000000	105.902	-191.3698
382.000000	105.842	-191.4178
387.000000	105.798	-191.4561
395.000000	105.729	-191.5458
400.000000	105.687	-191.6056
406.000000	105.638	-191.6458
412.000000	105.589	-191.6518
418.000000	105.540	-191.6394
425.000000	105.484	-191.6102
431.000000	105.436	-191.5837
437.000000	105.389	-191.5591
444.000000	105.336	-191.5280
450.000000	105.290	-191.4985
455.000000	105.251	-191.4673
462.000000	105.196	-191.4066
468.000000	105.148	-191.3413
475.000000	105.092	-191.2576
482.000000	105.036	-191.1683
487.000000	104.998	-191.0975
494.000000	104.947	-190.9862
500.000000	104.906	-190.8818
508.000000	104.852	-190.7324
515.000000	104.806	-190.5988
522.000000	104.761	-190.4644
530.000000	104.711	-190.3012
538.000000	104.661	-190.1259
545.000000	104.617	-189.9657
552.000000	104.574	-189.8004
560.000000	104.528	-189.6063
570.000000	104.474	-189.3494
580.000000	104.420	-189.0720
590.000000	104.366	-188.7761
600.000000	104.314	-188.4577
608.000000	104.274	-188.1908
615.000000	104.241	-187.9576
622.000000	104.209	-187.7268
630.000000	104.173	-187.4599
640.000000	104.128	-187.1174
650.000000	104.083	-186.7659
660.000000	104.042	-186.4037
670.000000	104.003	-186.0343
680.000000	103.968	-185.6566
690.000000	103.934	-185.2666
700.000000	103.902	-184.8597
710.000000	103.872	-184.4356
720.000000	103.843	-183.9975
730.000000	103.817	-183.5482
740.000000	103.794	-183.0920
750.000000	103.773	-182.6301
762.000000	103.751	-182.0642
775.000000	103.733	-181.4401
788.000000	103.720	-180.8062
800.000000	103.713	-180.2186
812.000000	103.712	-179.6351
825.000000	103.716	-179.0043
838.000000	103.724	-178.3671
850.000000	103.737	-177.7716
862.000000	103.754	-177.1714
875.000000	103.776	-176.5185
885.000000	103.795	-176.0154
900.000000	103.829	-175.2671
912.000000	103.860	-174.6824
925.000000	103.899	-174.0641
938.000000	103.941	-173.4571
950.000000	103.982	-172.9043
962.000000	104.024	-172.3567
975.000000	104.072	-171.7663
988.000000	104.124	-171.1743
1000.000000	104.177	-170.6157
1015.000000	104.251	-169.8900
1030.000000	104.335	-169.1474
1044.000000	104.424	-168.4609
1060.000000	104.540	-167.7084
1075.000000	104.661	-167.0570
1090.000000	104.793	-166.4757
1106.000000	104.942	-165.9436
1120.000000	105.078	-165.5574
1138.000000	105.255	-165.1698
1150.000000	105.375	-164.9776
1172.000000	105.591	-164.7571
1180.000000	105.669	-164.7167
1206.000000	105.912	-164.7074
1220.000000	106.037	-164.7649
1241.000000	106.215	-164.9165
1250.000000	106.288	-165.0012
1265.000000	106.406	-165.1605
1280.000000	106.518	-165.3344
1315.000000	106.759	-165.7601
1320.000000	106.792	-165.8204
1340.000000	106.919	-166.0559
1360.000000	107.043	-166.2853
1380.000000	107.166	-166.5175
1400.000000	107.290	-166.7614
1430.000000	107.473	-167.1671
1450.000000	107.592	-167.4718
1475.000000	107.736	-167.8890
1500.000000	107.872	-168.3358
1525.000000	108.001	-168.8002
1550.000000	108.123	-169.2638
1575.000000	108.239	-169.7084
1600.000000	108.352	-170.1280
1625.000000	108.463	-170.5260
1650.000000	108.573	-170.9071
1675.000000	108.682	-171.2760
1700.000000	108.791	-171.6347
1725.000000	108.901	-171.9837
1750.000000	109.013	-172.3234
1775.000000	109.127	-172.6546
1800.000000	109.243	-172.9826
1825.000000	109.362	-173.3149
1850.000000	109.482	-173.6548
1875.000000	109.604	-174.0016
1900.000000	109.729	-174.3557
1925.000000	109.857	-174.7179
1950.000000	109.987	-175.0891
1975.000000	110.121	-175.4714
2000.000000	110.259	-175.8676
2030.000000	110.427	-176.3641
2060.000000	110.600	-176.8878
2090.000000	110.776	-177.4417
2120.000000	110.957	-178.0244
2140.000000	111.080	-178.4278
2180.000000	111.332	-179.2754
2200.000000	111.462	-179.7237
2240.000000	111.728	-180.6847
2270.000000	111.933	-181.4728
2300.000000	112.143	-182.3241
2330.000000	112.355	-183.2418
2360.000000	112.571	-184.2299
2400.000000	112.863	-185.6679
2430.000000	113.083	-186.8474
2470.000000	113.374	-188.5688
2500.000000	113.590	-189.9775
2540.000000	113.871	-192.0143
2580.000000	114.140	-194.2248
2620.000000	114.394	-196.5959
2650.000000	114.571	-198.4715
2690.000000	114.786	-201.0888
2720.000000	114.931	-203.1265
2760.000000	115.101	-205.9199
2800.000000	115.244	-208.7736
2850.000000	115.387	-212.3853
2900.000000	115.489	-216.0056
2950.000000	115.554	-219.6023
3000.000000	115.583	-223.1516
3040.000000	115.583	-225.9441
3070.000000	115.570	-228.0038
3110.000000	115.537	-230.6942
3150.000000	115.488	-233.3114
3200.000000	115.406	-236.4681
3250.000000	115.306	-239.4857
3300.000000	115.190	-242.3603
3350.000000	115.060	-245.0919
3400.000000	114.921	-247.6830
3450.000000	114.773	-250.1385
3500.000000	114.620	-252.4597
3550.000000	114.463	-254.6436
3600.000000	114.305	-256.6936
3650.000000	114.147	-258.6208
3700.000000	113.990	-260.4357
3750.000000	113.835	-262.1461
3820.000000	113.623	-264.3805
3870.000000	113.477	-265.8731
3950.000000	113.252	-268.1122
4000.000000	113.116	-269.4348
4060.000000	112.961	-270.9489
4120.000000	112.816	-272.3823
4180.000000	112.685	-273.7379
4250.000000	112.553	-275.2444
4310.000000	112.458	-276.5034
4370.000000	112.376	-277.7655
4440.000000	112.294	-279.2731
4500.000000	112.230	-280.6009
4550.000000	112.179	-281.7246
4620.000000	112.113	-283.3098
4680.000000	112.059	-284.6718
4750.000000	112.000	-286.2568
4820.000000	111.946	-287.8280
4870.000000	111.909	-288.9385
4940.000000	111.861	-290.4807
5000.000000	111.821	-291.7972
5080.000000	111.768	-293.5477
5150.000000	111.721	-295.0642
5220.000000	111.680	-296.5504
5300.000000	111.643	-298.2110
5380.000000	111.620	-299.8656
5450.000000	111.611	-301.3481
5520.000000	111.612	-302.8892
5600.000000	111.621	-304.7368
5700.000000	111.636	-307.1818
5800.000000	111.649	-309.7707
5900.000000	111.655	-312.4853
6000.000000	111.650	-315.3057
6080.000000	111.637	-317.6223
6150.000000	111.617	-319.6800
6220.000000	111.589	-321.7586
6300.000000	111.546	-324.1550
6400.000000	111.475	-327.1709
6500.000000	111.383	-330.1898
6600.000000	111.274	-333.1880
6700.000000	111.148	-336.1368
6800.000000	111.009	-338.9961
6900.000000	110.863	-341.7317
7000.000000	110.712	-344.3349
7100.000000	110.561	-346.8159
7200.000000	110.413	-349.1909
7300.000000	110.271	-351.4723
7400.000000	110.136	-353.6594
7500.000000	110.009	-355.7470
7620.000000	109.872	-358.1349
7750.000000	109.748	-360.6135
7880.000000	109.656	-363.0029
8000.000000	109.608	-365.1357
8120.000000	109.599	-367.2090
8250.000000	109.636	-369.4304
8380.000000	109.725	-371.7195
8500.000000	109.851	-374.0011
8620.000000	110.019	-376.5424
8750.000000	110.245	-379.6743
8850.000000	110.446	-382.3968
9000.000000	110.779	-387.0783
9120.000000	111.056	-391.4292
9250.000000	111.340	-396.8449
9380.000000	111.576	-403.0436
9500.000000	111.719	-409.4366
9620.000000	111.763	-416.3674
9750.000000	111.676	-424.2658
9880.000000	111.435	-432.2584
10000.000000	111.078	-439.4219
10150.000000	110.471	-447.7276
10300.000000	109.723	-455.0456
10440.000000	108.941	-460.8885
10600.000000	107.998	-466.4466
10750.000000	107.103	-470.7102
10900.000000	106.222	-474.2155
11060.000000	105.316	-477.2726
11200.000000	104.560	-479.4691
11380.000000	103.648	-481.7495
11500.000000	103.079	-482.9843
11720.000000	102.117	-484.7643
11800.000000	101.792	-485.2792
12060.000000	100.828	-486.5602
12200.000000	100.363	-487.0512
12410.000000	99.732	-487.6031
12500.000000	99.485	-487.7867
12650.000000	99.106	-488.0411
12800.000000	98.764	-488.2560
13150.000000	98.106	-488.7468
13200.000000	98.027	-488.8236
13400.000000	97.747	-489.1583
13600.000000	97.524	-489.5339
13800.000000	97.358	-489.9321
14000.000000	97.250	-490.3401
14300.000000	97.203	-491.0110
14500.000000	97.256	-491.5665
14750.000000	97.424	-492.5013
15000.000000	97.709	-493.8370
15250.000000	98.116	-495.6861
15500.000000	98.654	-498.1525
15750.000000	99.325	-501.4085
16000.000000	100.123	-505.7177
16250.000000	101.020	-511.4419
16500.000000	101.951	-519.0607
16750.000000	102.804	-529.0698
17000.000000	103.431	-541.6770
17250.000000	103.690	-556.3817
17500.000000	103.489	-571.8209
17750.000000	102.820	-586.2299
18000.000000	101.761	-598.2341
18250.000000	100.441	-607.3027
18500.000000	99.009	-613.6433
18750.000000	97.595	-617.8433
19000.000000	96.302	-620.5784
19250.000000	95.202	-622.4901
19500.000000	94.342	-624.1799
19750.000000	93.750	-626.2943
20000.000000	93.417	-629.6517
