* Measurement data measured by REW V5.19
* Source: ASIO MOTU M Series, In 1
* Format: 1M Log Swept Sine, 1 sweep at -3.0 dBFS  With no timing reference
* Dated: 20 Oct, 2020 3:57:08 PM
* REW Settings:
*  C-weighting compensation: Off
*  Target level: 75.0 dB
* Note: ; 
* Measurement: Oct 20 15:57:08
* Smoothing: None
* Frequency Step: 1/48 octave
* Start Frequency: 10.1 Hz
*
* Freq(Hz), SPL(dB), Phase(degrees)
10.145, 46.999, -15.823
10.293, 47.345, -15.864
10.443, 47.695, -16.137
10.595, 48.040, -16.793
10.749, 48.368, -17.701
10.905, 48.659, -18.813
11.064, 48.916, -20.087
11.225, 49.133, -21.370
11.388, 49.311, -22.663
11.554, 49.462, -23.816
11.722, 49.589, -24.840
11.892, 49.716, -25.682
12.065, 49.843, -26.363
12.241, 49.992, -26.961
12.419, 50.160, -27.509
12.599, 50.351, -28.145
12.782, 50.555, -28.881
12.968, 50.763, -29.801
13.157, 50.962, -30.845
13.348, 51.140, -32.013
13.543, 51.294, -33.161
13.740, 51.421, -34.252
13.939, 51.536, -35.142
14.142, 51.648, -35.830
14.348, 51.777, -36.270
14.557, 51.938, -36.583
14.768, 52.138, -36.819
14.983, 52.375, -37.166
15.201, 52.631, -37.664
15.422, 52.893, -38.372
15.646, 53.136, -39.212
15.874, 53.356, -40.080
16.105, 53.549, -40.867
16.339, 53.732, -41.431
16.577, 53.927, -41.785
16.818, 54.150, -41.967
17.063, 54.420, -42.157
17.311, 54.721, -42.554
17.563, 55.033, -43.253
17.818, 55.326, -44.294
18.077, 55.566, -45.549
18.340, 55.743, -46.783
18.607, 55.866, -47.785
18.877, 55.962, -48.390
19.152, 56.073, -48.544
19.431, 56.240, -48.439
19.713, 56.474, -48.393
20.000, 56.750, -48.659
20.291, 57.031, -49.342
20.586, 57.276, -50.357
20.885, 57.464, -51.462
21.189, 57.608, -52.392
21.497, 57.745, -53.012
21.810, 57.916, -53.424
22.127, 58.134, -53.888
22.449, 58.380, -54.649
22.776, 58.611, -55.762
23.107, 58.792, -57.053
23.443, 58.919, -58.222
23.784, 59.024, -59.037
24.130, 59.155, -59.502
24.481, 59.343, -59.881
24.837, 59.575, -60.494
25.198, 59.802, -61.454
25.565, 59.983, -62.574
25.937, 60.119, -63.526
26.314, 60.249, -64.109
26.697, 60.424, -64.446
27.085, 60.655, -64.894
27.479, 60.902, -65.704
27.879, 61.113, -66.765
28.284, 61.279, -67.724
28.696, 61.444, -68.365
29.113, 61.664, -68.869
29.537, 61.940, -69.704
29.966, 62.201, -71.102
30.402, 62.380, -72.779
30.844, 62.475, -74.155
31.293, 62.568, -74.904
31.748, 62.744, -75.351
32.210, 62.997, -76.157
32.678, 63.233, -77.577
33.154, 63.380, -79.196
33.636, 63.461, -80.403
34.125, 63.565, -81.086
34.621, 63.738, -81.718
35.125, 63.930, -82.699
35.636, 64.077, -83.818
36.154, 64.199, -84.620
36.680, 64.369, -85.120
37.214, 64.614, -85.829
37.755, 64.868, -87.071
38.304, 65.069, -88.624
38.861, 65.220, -90.084
39.427, 65.358, -91.344
40.000, 65.503, -92.476
40.582, 65.664, -93.528
41.172, 65.852, -94.638
41.771, 66.041, -96.016
42.379, 66.181, -97.560
42.995, 66.272, -98.852
43.620, 66.381, -99.840
44.255, 66.520, -100.918
44.898, 66.642, -102.175
45.552, 66.746, -103.385
46.214, 66.857, -104.651
46.886, 66.942, -106.038
47.568, 67.013, -107.165
48.260, 67.161, -108.308
48.962, 67.307, -110.253
49.674, 67.299, -112.282
50.397, 67.263, -113.148
51.130, 67.397, -113.792
51.874, 67.545, -115.369
52.628, 67.575, -116.894
53.394, 67.616, -117.886
54.170, 67.676, -119.011
54.958, 67.704, -119.983
55.758, 67.777, -120.851
56.569, 67.837, -122.117
57.391, 67.851, -123.214
58.226, 67.905, -124.253
59.073, 67.932, -125.520
59.932, 67.964, -126.374
60.804, 68.082, -127.541
61.688, 68.112, -129.202
62.586, 68.093, -130.176
63.496, 68.148, -131.225
64.420, 68.112, -132.487
65.357, 68.081, -132.977
66.307, 68.133, -133.965
67.272, 68.046, -135.105
68.250, 68.016, -135.334
69.243, 68.051, -136.331
70.250, 67.969, -136.880
71.272, 68.072, -137.054
72.309, 68.119, -138.538
73.360, 68.033, -139.096
74.427, 68.047, -139.357
75.510, 68.063, -139.499
76.608, 68.181, -139.959
77.723, 68.185, -141.065
78.853, 68.163, -141.294
80.000, 68.238, -141.855
81.164, 68.244, -142.241
82.344, 68.410, -142.683
83.542, 68.432, -143.919
84.757, 68.504, -144.119
85.990, 68.592, -145.006
87.241, 68.668, -145.694
88.510, 68.730, -146.160
89.797, 68.943, -147.156
91.103, 69.007, -148.596
92.428, 69.154, -149.838
93.773, 69.276, -151.499
95.137, 69.370, -153.818
96.520, 69.281, -156.074
97.924, 69.165, -158.006
99.349, 68.904, -159.710
100.794, 68.703, -160.600
102.260, 68.428, -161.443
103.747, 68.236, -161.102
105.256, 68.102, -160.685
106.787, 68.131, -160.221
108.340, 68.011, -160.299
109.916, 68.039, -159.602
111.515, 68.098, -159.457
113.137, 68.160, -159.646
114.783, 68.233, -159.751
116.452, 68.305, -159.903
118.146, 68.395, -160.442
119.865, 68.535, -161.088
121.608, 68.632, -161.967
123.377, 68.721, -162.719
125.171, 68.905, -163.976
126.992, 68.913, -165.250
128.839, 69.015, -166.176
130.713, 69.046, -167.938
132.615, 69.072, -170.257
134.543, 69.004, -172.104
136.500, 68.938, -173.908
138.486, 68.717, -176.463
140.500, 68.308, -177.553
142.544, 67.938, -177.983
144.617, 67.676, -177.089
146.721, 67.558, -175.987
148.855, 67.505, -175.112
151.020, 67.552, -174.752
153.217, 67.601, -174.775
155.445, 67.613, -175.253
157.706, 67.690, -175.653
160.000, 67.695, -176.260
162.327, 67.628, -176.892
164.688, 67.653, -177.729
167.084, 67.605, -178.416
169.514, 67.604, -179.329
171.980, 67.565, 179.815
174.481, 67.458, 178.837
177.019, 67.432, 178.145
179.594, 67.357, 177.146
182.206, 67.223, 176.325
184.856, 67.132, 175.192
187.545, 66.989, 174.306
190.273, 66.794, 173.345
193.041, 66.603, 172.329
195.849, 66.381, 171.425
198.697, 66.052, 171.186
201.587, 65.699, 170.960
204.520, 65.400, 171.019
207.494, 65.170, 171.487
210.512, 64.971, 172.635
213.574, 64.732, 173.759
216.681, 64.545, 174.817
219.833, 64.629, 176.609
223.030, 64.692, 176.209
226.274, 64.651, 175.303
229.565, 64.510, 174.263
232.905, 64.233, 174.145
236.292, 63.986, 175.246
239.729, 63.709, 176.521
243.216, 63.471, 177.727
246.754, 63.264, 179.177
250.343, 63.120, -179.531
253.984, 62.952, -177.804
257.678, 62.825, -175.911
261.426, 62.834, -174.392
265.229, 62.674, -172.546
269.087, 62.612, -170.853
273.001, 62.593, -168.048
276.972, 62.521, -166.811
281.000, 62.436, -163.895
285.088, 62.509, -160.074
289.234, 62.623, -156.100
293.441, 63.220, -152.012
297.710, 64.122, -150.357
302.040, 64.798, -152.803
306.433, 65.105, -155.337
310.890, 65.186, -156.971
315.412, 65.238, -158.032
320.000, 65.282, -158.503
324.655, 65.307, -158.779
329.377, 65.302, -158.679
334.168, 65.383, -158.617
339.028, 65.449, -158.808
343.959, 65.521, -158.828
348.962, 65.567, -158.786
354.038, 65.673, -158.569
359.188, 65.741, -158.870
364.412, 65.866, -158.601
369.713, 65.921, -158.787
375.090, 66.045, -158.900
380.546, 66.055, -159.139
386.081, 66.132, -159.305
391.697, 66.192, -159.412
397.395, 66.264, -159.484
403.175, 66.271, -159.784
409.039, 66.368, -159.969
414.989, 66.397, -160.223
421.025, 66.428, -160.433
427.149, 66.492, -160.522
433.362, 66.508, -160.570
439.665, 66.529, -160.590
446.060, 66.599, -160.621
452.548, 66.615, -160.783
459.131, 66.660, -161.121
465.809, 66.745, -160.917
472.584, 66.730, -161.067
479.458, 66.769, -161.332
486.432, 66.822, -161.475
493.507, 66.852, -161.677
500.686, 66.893, -161.715
507.968, 66.924, -161.933
515.357, 66.952, -162.124
522.853, 66.957, -162.161
530.458, 66.969, -161.994
538.174, 67.010, -162.570
546.002, 67.067, -162.652
553.943, 67.067, -162.763
562.001, 67.082, -162.968
570.175, 67.131, -163.069
578.469, 67.113, -163.248
586.883, 67.152, -163.175
595.419, 67.106, -163.222
604.080, 67.146, -163.585
612.866, 67.146, -163.561
621.780, 67.155, -163.610
630.824, 67.152, -163.635
640.000, 67.159, -163.757
649.309, 67.151, -163.694
658.753, 67.182, -163.619
668.335, 67.181, -163.689
678.056, 67.174, -163.471
687.919, 67.162, -163.440
697.925, 67.184, -163.546
708.076, 67.215, -163.560
718.376, 67.218, -163.226
728.825, 67.199, -163.265
739.426, 67.224, -162.938
750.181, 67.236, -162.747
761.093, 67.271, -162.822
772.163, 67.323, -162.642
783.394, 67.326, -162.095
794.789, 67.386, -162.109
806.349, 67.425, -161.920
818.078, 67.513, -162.315
829.977, 67.541, -162.275
842.050, 67.519, -162.111
854.297, 67.533, -162.106
866.724, 67.574, -162.385
879.330, 67.572, -161.972
892.120, 67.546, -162.212
905.097, 67.558, -161.813
918.262, 67.575, -161.692
931.618, 67.544, -161.377
945.169, 67.613, -161.075
958.917, 67.662, -160.373
972.864, 67.689, -159.992
987.015, 67.728, -159.696
1001.371, 67.823, -159.434
1015.937, 67.884, -158.970
1030.714, 67.995, -158.937
1045.706, 68.104, -158.699
1060.916, 68.199, -158.884
1076.347, 68.202, -158.697
1092.003, 68.388, -159.215
1107.887, 68.430, -158.708
1124.001, 68.419, -158.741
1140.350, 68.508, -158.857
1156.937, 68.611, -158.498
1173.765, 68.684, -159.024
1190.838, 68.785, -158.876
1208.159, 68.833, -159.039
1225.732, 68.880, -159.005
1243.561, 69.000, -158.817
1261.649, 69.046, -159.081
1280.000, 69.129, -159.728
1298.618, 69.217, -159.668
1317.507, 69.282, -159.663
1336.670, 69.332, -160.103
1356.113, 69.403, -160.094
1375.838, 69.482, -160.135
1395.850, 69.553, -160.362
1416.153, 69.677, -160.519
1436.751, 69.742, -160.967
1457.649, 69.814, -160.974
1478.851, 69.900, -161.192
1500.362, 69.991, -161.609
1522.185, 70.096, -161.761
1544.326, 70.164, -162.037
1566.789, 70.229, -162.446
1589.578, 70.282, -162.712
1612.699, 70.353, -163.099
1636.156, 70.436, -163.459
1659.955, 70.507, -163.682
1684.099, 70.583, -164.102
1708.595, 70.642, -164.389
1733.447, 70.752, -164.660
1758.661, 70.830, -165.070
1784.241, 70.921, -165.712
1810.193, 71.004, -166.527
1836.523, 71.060, -166.949
1863.236, 71.132, -167.251
1890.338, 71.185, -167.920
1917.833, 71.289, -168.474
1945.729, 71.379, -169.215
1974.030, 71.484, -170.050
2002.743, 71.551, -171.030
2031.873, 71.603, -172.242
2061.428, 71.602, -173.515
2091.412, 71.609, -174.257
2121.832, 71.560, -174.958
2152.695, 71.547, -175.183
2184.007, 71.595, -175.575
2215.774, 71.703, -176.757
2248.003, 71.713, -177.970
2280.701, 71.711, -179.374
2313.874, 71.692, 178.955
2347.530, 71.608, 178.369
2381.676, 71.474, 177.507
2416.318, 71.327, 177.106
2451.464, 71.276, 175.676
2487.122, 71.217, 175.317
2523.298, 71.058, 175.021
2560.000, 70.963, 174.955
2597.236, 70.835, 174.623
2635.014, 70.827, 174.165
2673.341, 70.733, 174.120
2712.226, 70.724, 174.225
2751.676, 70.605, 174.367
2791.700, 70.541, 174.123
2832.306, 70.565, 174.629
2873.503, 70.689, 174.532
2915.299, 70.626, 174.809
2957.703, 70.702, 174.746
3000.724, 70.700, 174.734
3044.370, 70.706, 174.548
3088.652, 70.624, 173.872
3133.577, 70.719, 175.007
3179.156, 70.932, 174.893
3225.398, 71.124, 174.878
3272.312, 71.372, 173.169
3319.909, 71.577, 171.572
3368.198, 71.618, 169.198
3417.190, 71.595, 167.442
3466.894, 71.539, 166.069
3517.321, 71.451, 164.017
3568.482, 71.351, 162.717
3620.387, 71.267, 161.844
3673.046, 71.170, 160.939
3726.472, 71.161, 159.891
3780.675, 71.196, 158.460
3835.666, 71.174, 156.632
3891.457, 71.111, 154.606
3948.060, 70.978, 152.420
4005.486, 70.838, 149.867
4063.747, 70.605, 147.238
4122.855, 70.268, 145.232
4182.824, 69.907, 143.009
4243.664, 69.460, 140.863
4305.390, 68.910, 139.839
4368.013, 68.365, 139.054
4431.547, 67.841, 139.065
4496.005, 67.271, 139.842
4561.401, 66.839, 140.423
4627.749, 66.354, 141.552
4695.061, 65.941, 143.321
4763.352, 65.605, 144.975
4832.637, 65.277, 146.746
4902.929, 65.023, 148.908
4974.244, 64.867, 151.431
5046.596, 64.765, 153.612
5120.000, 64.684, 156.286
5194.472, 64.769, 158.173
5270.027, 64.942, 159.164
5346.682, 64.973, 158.739
5424.451, 64.918, 158.120
5503.352, 64.756, 158.067
5583.399, 64.384, 158.930
5664.612, 64.088, 160.493
5747.006, 63.960, 162.891
5830.598, 63.892, 165.710
5915.406, 64.075, 168.490
6001.447, 64.244, 170.715
6088.740, 64.560, 172.776
6177.303, 64.985, 173.139
6267.154, 65.215, 171.626
6358.312, 65.359, 170.338
6450.796, 65.282, 169.075
6544.625, 65.189, 168.188
6639.818, 64.926, 168.742
6736.397, 64.796, 170.675
6834.380, 65.021, 173.058
6933.789, 65.452, 173.470
7034.643, 65.829, 171.563
7136.964, 65.820, 169.451
7240.773, 65.736, 169.196
7346.093, 65.685, 170.228
7452.944, 66.001, 170.815
7561.350, 66.377, 170.565
7671.332, 66.840, 169.363
7782.915, 67.416, 166.854
7896.120, 67.836, 162.230
8010.971, 68.122, 157.379
8127.493, 68.262, 152.996
8245.711, 68.300, 147.705
8365.647, 68.304, 142.800
8487.328, 68.269, 137.739
8610.779, 68.838, 132.937
8736.026, 68.897, 122.028
8863.095, 68.931, 111.355
8992.011, 68.693, 97.801
9122.803, 67.945, 81.403
9255.497, 66.532, 63.839
9390.121, 64.260, 45.898
9526.704, 61.250, 32.010
9665.273, 58.260, 21.194
9805.857, 55.698, 8.759
9948.487, 53.451, -9.526
10093.191, 51.557, -33.939
10240.000, 50.607, -58.641
10388.944, 51.365, -80.048
10540.055, 52.943, -100.618
10693.363, 54.189, -122.893
10848.902, 54.003, -146.646
11006.703, 51.758, -163.602
11166.799, 48.525, -166.775
11329.224, 45.051, -152.352
11494.012, 44.434, -118.499
11661.195, 48.069, -93.691
11830.812, 52.071, -92.977
12002.895, 54.499, -104.225
12177.480, 55.162, -117.401
12354.606, 54.498, -120.494
12534.309, 55.220, -120.000
12716.624, 56.165, -125.997
12901.592, 56.412, -136.851
13089.250, 55.261, -147.260
13279.637, 54.192, -149.378
13472.794, 53.890, -152.203
13668.760, 52.423, -165.463
13867.577, 47.891, -173.049
14069.285, 42.743, -140.740
14273.928, 45.403, -106.133
14481.547, 47.301, -100.231
14692.186, 48.336, -97.697
14905.889, 48.537, -95.699
15122.700, 48.850, -86.751
15342.664, 50.270, -79.250
15565.829, 51.766, -78.910
15792.239, 52.807, -82.731
16021.942, 53.196, -88.416
16254.986, 53.083, -88.934
16491.422, 53.237, -89.771
16731.295, 53.494, -92.955
16974.656, 53.059, -97.332
17221.559, 52.364, -98.220
17472.053, 51.520, -94.453
17726.189, 51.071, -89.265
17984.021, 51.618, -81.944
18245.605, 52.659, -78.108
18510.994, 53.681, -80.719
18780.242, 54.087, -86.808
19053.408, 54.111, -93.690
19330.547, 54.021, -96.857
19611.715, 54.555, -106.601
19896.975, 52.808, -125.156
