* Measurement data measured by REW V5.19
* Source: ASIO MOTU M Series, In 1
* Format: 512k Log Swept Sine, 2 sweeps at -10.0 dBFS  With no timing reference
* Dated: 10 Sep, 2020 5:46:39 PM
* REW Settings:
*  C-weighting compensation: Off
*  Target level: 75.0 dB
* Note: ; 
* Measurement: Sep 10 17:46:39
* Smoothing: None
* Frequency Step: 1/48 octave
* Start Frequency: 10.1 Hz
*
* Freq(Hz), SPL(dB), Phase(degrees)
10.145, 61.713, -49.289
10.293, 61.813, -50.391
10.443, 61.917, -51.528
10.595, 62.042, -52.392
10.749, 62.187, -53.205
10.905, 62.358, -54.033
11.064, 62.552, -54.899
11.225, 62.763, -55.919
11.388, 62.988, -57.084
11.554, 63.208, -58.455
11.722, 63.422, -60.019
11.892, 63.609, -61.730
12.065, 63.768, -63.568
12.241, 63.886, -65.403
12.419, 63.967, -67.201
12.599, 64.014, -68.804
12.782, 64.037, -70.186
12.968, 64.052, -71.235
13.157, 64.082, -72.015
13.348, 64.145, -72.508
13.543, 64.257, -72.956
13.740, 64.422, -73.419
13.939, 64.624, -74.183
14.142, 64.843, -75.270
14.348, 65.050, -76.788
14.557, 65.210, -78.582
14.768, 65.309, -80.584
14.983, 65.329, -82.487
15.201, 65.288, -84.078
15.422, 65.200, -85.147
15.646, 65.133, -85.515
15.874, 65.137, -85.365
16.105, 65.262, -84.882
16.339, 65.527, -84.767
16.577, 65.881, -85.393
16.818, 66.271, -87.049
17.063, 66.602, -89.770
17.311, 66.807, -93.225
17.563, 66.848, -97.054
17.818, 66.701, -100.798
18.077, 66.371, -103.801
18.340, 65.925, -105.433
18.607, 65.478, -105.325
18.877, 65.180, -103.508
19.152, 65.198, -100.739
19.431, 65.552, -98.668
19.713, 66.091, -98.273
20.000, 66.648, -99.722
20.291, 67.088, -102.648
20.586, 67.337, -106.397
20.885, 67.373, -110.273
21.189, 67.215, -113.631
21.497, 66.923, -115.915
21.810, 66.594, -116.787
22.127, 66.349, -116.312
22.449, 66.286, -115.058
22.776, 66.424, -113.874
23.107, 66.699, -113.440
23.443, 67.010, -113.970
23.784, 67.276, -115.257
24.130, 67.460, -116.905
24.481, 67.570, -118.548
24.837, 67.639, -119.995
25.198, 67.700, -121.277
25.565, 67.767, -122.557
25.937, 67.823, -123.957
26.314, 67.842, -125.433
26.697, 67.814, -126.790
27.085, 67.759, -127.825
27.479, 67.714, -128.497
27.879, 67.708, -128.969
28.284, 67.738, -129.440
28.696, 67.788, -129.976
29.113, 67.850, -130.520
29.537, 67.941, -131.088
29.966, 68.063, -131.885
30.402, 68.183, -133.122
30.844, 68.236, -134.714
31.293, 68.190, -136.179
31.748, 68.088, -136.975
32.210, 68.039, -137.024
32.678, 68.120, -136.980
33.154, 68.285, -137.606
33.636, 68.409, -139.016
34.125, 68.424, -140.619
34.621, 68.370, -141.801
35.125, 68.339, -142.522
35.636, 68.359, -143.250
36.154, 68.377, -144.265
36.680, 68.346, -145.290
37.214, 68.290, -145.976
37.755, 68.263, -146.410
38.304, 68.265, -146.895
38.861, 68.261, -147.498
39.427, 68.243, -148.127
40.000, 68.216, -148.851
40.582, 68.148, -149.710
41.172, 68.025, -150.420
41.771, 67.897, -150.781
42.379, 67.812, -151.070
42.995, 67.738, -151.535
43.620, 67.659, -151.908
44.255, 67.636, -152.080
44.898, 67.695, -152.464
45.552, 67.776, -153.301
46.214, 67.815, -154.294
46.886, 67.808, -154.896
47.568, 67.836, -154.672
48.260, 68.033, -154.236
48.962, 68.310, -155.033
49.674, 68.388, -156.799
50.397, 68.265, -157.693
51.130, 68.210, -157.634
51.874, 68.230, -158.202
52.628, 68.161, -159.274
53.394, 68.070, -160.221
54.170, 67.985, -161.642
54.958, 67.796, -163.167
55.758, 67.601, -163.805
56.569, 67.548, -164.235
57.391, 67.516, -165.237
58.226, 67.398, -166.063
59.073, 67.281, -166.301
59.932, 67.157, -166.592
60.804, 66.938, -166.399
61.688, 66.797, -165.457
62.586, 66.720, -165.152
63.496, 66.546, -164.892
64.420, 66.404, -163.948
65.357, 66.396, -162.734
66.307, 66.539, -162.228
67.272, 66.602, -162.645
68.250, 66.574, -162.610
69.243, 66.509, -161.948
70.250, 66.581, -160.378
71.272, 66.704, -160.098
72.309, 66.644, -158.573
73.360, 66.976, -156.814
74.427, 67.205, -157.528
75.510, 67.196, -157.865
76.608, 67.138, -156.804
77.723, 67.431, -155.832
78.853, 67.552, -157.215
80.000, 67.649, -157.193
81.164, 67.810, -159.018
82.344, 67.742, -159.581
83.542, 67.948, -159.821
84.757, 68.104, -161.121
85.990, 68.121, -162.139
87.241, 68.096, -162.040
88.510, 68.285, -161.034
89.797, 68.555, -162.312
91.103, 68.577, -162.742
92.428, 68.675, -164.137
93.773, 68.554, -164.598
95.137, 68.471, -164.541
96.520, 68.624, -164.920
97.924, 68.577, -165.397
99.349, 68.641, -166.672
100.794, 68.799, -166.630
102.260, 68.590, -168.475
103.747, 68.753, -168.644
105.256, 68.627, -168.564
106.787, 68.638, -170.121
108.340, 68.839, -169.816
109.916, 68.752, -171.004
111.515, 68.790, -171.554
113.137, 68.826, -172.198
114.783, 68.855, -172.405
116.452, 68.864, -174.503
118.146, 68.789, -174.589
119.865, 68.762, -175.890
121.608, 68.761, -175.779
123.377, 68.737, -177.051
125.171, 68.740, -176.913
126.992, 68.815, -178.024
128.839, 68.734, -177.896
130.713, 68.477, -179.034
132.615, 68.600, -179.579
134.543, 68.463, 179.717
136.500, 68.585, -177.459
138.486, 67.652, -179.303
140.500, 68.521, 179.586
142.544, 68.436, 177.161
144.617, 68.284, 176.767
146.721, 68.355, 176.694
148.855, 68.127, 177.094
151.020, 68.058, 175.601
153.217, 68.095, 176.189
155.445, 68.124, 175.833
157.706, 68.007, 175.490
160.000, 67.859, 175.552
162.327, 67.999, 174.619
164.688, 68.018, 173.792
167.084, 67.907, 173.362
169.514, 67.803, 173.827
171.980, 67.743, 172.809
174.481, 67.692, 172.609
177.019, 67.668, 172.396
179.594, 67.486, 172.071
182.206, 67.437, 171.444
184.856, 67.337, 170.797
187.545, 67.240, 171.189
190.273, 67.098, 171.283
193.041, 66.867, 171.283
195.849, 67.070, 171.502
198.697, 66.998, 172.434
201.587, 66.889, 171.606
204.520, 66.752, 170.422
207.494, 66.775, 170.760
210.512, 66.834, 171.062
213.574, 66.689, 171.487
216.681, 66.580, 170.643
219.833, 66.572, 170.552
223.030, 66.514, 170.620
226.274, 66.441, 170.502
229.565, 66.379, 170.214
232.905, 66.426, 170.550
236.292, 66.248, 170.137
239.729, 66.156, 170.690
243.216, 66.163, 170.484
246.754, 66.132, 170.199
250.343, 66.019, 170.512
253.984, 65.965, 170.831
257.678, 65.896, 170.597
261.426, 65.811, 170.904
265.229, 65.756, 170.793
269.087, 65.721, 170.905
273.001, 65.647, 171.430
276.972, 65.623, 171.140
281.000, 65.578, 171.715
285.088, 65.485, 171.784
289.234, 65.474, 172.063
293.441, 65.449, 172.292
297.710, 65.349, 172.240
302.040, 65.324, 172.581
306.433, 65.278, 172.888
310.890, 65.280, 173.116
315.412, 65.195, 173.409
320.000, 65.244, 173.778
324.655, 65.158, 173.481
329.377, 65.019, 174.153
334.168, 65.071, 174.790
339.028, 65.058, 174.577
343.959, 65.080, 174.876
348.962, 65.007, 175.133
354.038, 65.024, 175.229
359.188, 64.979, 175.494
364.412, 64.951, 175.874
369.713, 64.931, 176.020
375.090, 64.860, 175.969
380.546, 64.852, 176.567
386.081, 64.829, 176.906
391.697, 64.829, 177.485
397.395, 64.814, 177.650
403.175, 64.835, 178.193
409.039, 64.841, 178.355
414.989, 64.861, 178.532
421.025, 64.869, 178.607
427.149, 64.859, 178.589
433.362, 64.872, 178.772
439.665, 64.880, 179.065
446.060, 64.888, 179.077
452.548, 64.841, 179.300
459.131, 64.856, 179.338
465.809, 64.856, 179.343
472.584, 64.844, 179.557
479.458, 64.842, 179.594
486.432, 64.795, 179.522
493.507, 64.749, 179.823
500.686, 64.760, 179.659
507.968, 64.714, 179.734
515.357, 64.653, 179.988
522.853, 64.619, -179.972
530.458, 64.574, -179.809
538.174, 64.471, -179.783
546.002, 64.442, -178.920
553.943, 64.338, -178.762
562.001, 64.350, -178.064
570.175, 64.286, -177.257
578.469, 64.236, -176.529
586.883, 64.291, -175.517
595.419, 64.340, -174.883
604.080, 64.385, -174.318
612.866, 64.460, -174.008
621.780, 64.524, -173.630
630.824, 64.559, -173.517
640.000, 64.577, -173.484
649.309, 64.624, -173.141
658.753, 64.639, -172.945
668.335, 64.664, -172.852
678.056, 64.697, -172.836
687.919, 64.711, -172.583
697.925, 64.713, -172.360
708.076, 64.729, -172.225
718.376, 64.735, -172.019
728.825, 64.725, -171.745
739.426, 64.751, -171.616
750.181, 64.754, -171.533
761.093, 64.770, -171.249
772.163, 64.785, -170.942
783.394, 64.786, -170.746
794.789, 64.799, -170.661
806.349, 64.788, -170.301
818.078, 64.816, -170.181
829.977, 64.841, -170.075
842.050, 64.843, -169.792
854.297, 64.868, -169.750
866.724, 64.889, -169.416
879.330, 64.883, -169.318
892.120, 64.853, -169.094
905.097, 64.842, -168.928
918.262, 64.862, -168.539
931.618, 64.868, -168.307
945.169, 64.838, -168.114
958.917, 64.835, -167.886
972.864, 64.827, -167.197
987.015, 64.916, -167.006
1001.371, 64.922, -167.013
1015.937, 64.898, -166.774
1030.714, 64.881, -166.638
1045.706, 64.822, -166.258
1060.916, 64.809, -165.980
1076.347, 64.785, -165.438
1092.003, 64.782, -164.708
1107.887, 64.723, -164.451
1124.001, 64.743, -163.527
1140.350, 64.727, -162.740
1156.937, 64.717, -162.008
1173.765, 64.700, -161.390
1190.838, 64.747, -160.396
1208.159, 64.816, -159.286
1225.732, 64.848, -158.722
1243.561, 64.918, -157.686
1261.649, 65.012, -156.914
1280.000, 65.095, -156.068
1298.618, 65.171, -155.243
1317.507, 65.276, -154.373
1336.670, 65.403, -153.627
1356.113, 65.548, -153.105
1375.838, 65.694, -152.404
1395.850, 65.838, -151.856
1416.153, 65.982, -151.500
1436.751, 66.099, -151.135
1457.649, 66.242, -150.780
1478.851, 66.426, -150.704
1500.362, 66.598, -150.527
1522.185, 66.745, -150.341
1544.326, 66.842, -150.218
1566.789, 66.966, -150.375
1589.578, 67.136, -150.154
1612.699, 67.251, -149.952
1636.156, 67.390, -150.177
1659.955, 67.525, -149.870
1684.099, 67.686, -150.161
1708.595, 67.838, -149.948
1733.447, 68.013, -150.422
1758.661, 68.102, -150.605
1784.241, 68.257, -150.609
1810.193, 68.428, -150.904
1836.523, 68.554, -151.324
1863.236, 68.680, -151.539
1890.338, 68.808, -151.653
1917.833, 68.988, -151.819
1945.729, 69.135, -152.700
1974.030, 69.260, -153.678
2002.743, 69.386, -154.020
2031.873, 69.458, -154.904
2061.428, 69.551, -155.212
2091.412, 69.660, -155.826
2121.832, 69.733, -156.288
2152.695, 69.866, -156.608
2184.007, 70.011, -157.132
2215.774, 70.170, -157.713
2248.003, 70.313, -158.564
2280.701, 70.445, -159.929
2313.874, 70.531, -160.941
2347.530, 70.681, -161.899
2381.676, 70.809, -163.458
2416.318, 70.875, -165.330
2451.464, 70.877, -167.056
2487.122, 70.866, -169.114
2523.298, 70.749, -171.191
2560.000, 70.628, -172.998
2597.236, 70.390, -174.783
2635.014, 70.045, -176.341
2673.341, 69.694, -177.517
2712.226, 69.188, -177.760
2751.676, 68.604, -177.059
2791.700, 67.984, -174.434
2832.306, 67.465, -169.866
2873.503, 67.342, -163.707
2915.299, 67.398, -157.471
2957.703, 67.803, -149.578
3000.724, 68.803, -141.062
3044.370, 70.469, -136.072
3088.652, 72.508, -135.610
3133.577, 74.545, -140.926
3179.156, 76.065, -151.067
3225.398, 76.822, -163.580
3272.312, 76.886, -175.239
3319.909, 76.538, 175.048
3368.198, 76.041, 167.557
3417.190, 75.520, 161.244
3466.894, 75.025, 155.717
3517.321, 74.466, 150.064
3568.482, 73.825, 144.320
3620.387, 72.922, 138.019
3673.046, 71.734, 133.729
3726.472, 70.318, 131.499
3780.675, 68.829, 131.266
3835.666, 67.368, 135.117
3891.457, 66.524, 141.472
3948.060, 66.096, 146.836
4005.486, 65.899, 151.010
4063.747, 65.702, 154.190
4122.855, 65.537, 156.138
4182.824, 65.267, 159.119
4243.664, 65.000, 161.972
4305.390, 64.829, 165.658
4368.013, 64.765, 169.475
4431.547, 64.869, 173.393
4496.005, 65.110, 176.854
4561.401, 65.445, 179.862
4627.749, 65.925, -178.053
4695.061, 66.419, -177.114
4763.352, 66.916, -177.100
4832.637, 67.368, -177.996
4902.929, 67.752, -179.577
4974.244, 68.081, 178.274
5046.596, 68.379, 175.457
5120.000, 68.601, 171.873
5194.472, 68.711, 167.020
5270.027, 68.489, 160.617
5346.682, 67.757, 154.439
5424.451, 66.593, 150.400
5503.352, 65.204, 150.100
5583.399, 63.916, 153.104
5664.612, 62.903, 158.880
5747.006, 62.212, 165.792
5830.598, 61.814, 173.921
5915.406, 61.811, -177.189
6001.447, 62.304, -169.023
6088.740, 63.146, -162.572
6177.303, 64.140, -158.407
6267.154, 65.272, -156.289
6358.312, 66.349, -156.378
6450.796, 67.424, -158.450
6544.625, 68.347, -162.847
6639.818, 68.937, -169.022
6736.397, 69.121, -175.439
6834.380, 69.031, 178.619
6933.789, 68.691, 173.599
7034.643, 68.165, 170.335
7136.964, 67.620, 169.011
7240.773, 67.211, 168.969
7346.093, 67.008, 169.601
7452.944, 66.978, 169.888
7561.350, 67.042, 169.125
7671.332, 67.014, 167.553
7782.915, 66.900, 166.358
7896.120, 66.787, 165.744
8010.971, 66.823, 165.427
8127.493, 67.050, 164.534
8245.711, 67.411, 162.395
8365.647, 67.853, 157.980
8487.328, 68.168, 150.769
8610.779, 68.158, 141.881
8736.026, 68.284, 128.935
8863.095, 66.993, 112.717
8992.011, 64.979, 95.237
9122.803, 61.694, 74.608
9255.497, 56.687, 42.617
9390.121, 53.321, -32.382
9526.704, 58.664, -89.547
9665.273, 63.069, -116.538
9805.857, 65.823, -139.015
9948.487, 66.979, -159.026
10093.191, 67.297, -174.298
10240.000, 67.194, 173.496
10388.944, 67.266, 164.836
10540.055, 67.662, 152.385
10693.363, 68.226, 135.429
10848.902, 67.362, 102.019
11006.703, 62.104, 50.636
11166.799, 55.502, -92.705
11329.224, 61.589, -170.351
11494.012, 62.435, 148.240
11661.195, 60.425, 139.659
11830.812, 60.334, 132.887
12002.895, 59.229, 121.077
12177.480, 56.533, 120.177
12354.606, 56.884, 130.164
12534.309, 57.469, 122.557
12716.624, 57.534, 107.308
12901.592, 57.037, 106.570
13089.250, 56.192, 75.224
13279.637, 52.241, 39.064
13472.794, 45.118, -117.149
13668.760, 52.216, 109.280
13867.577, 56.164, 96.101
14069.285, 56.669, 49.311
14273.928, 55.313, 22.206
14481.547, 52.775, 0.941
14692.186, 53.057, 28.537
14905.889, 60.106, -5.431
15122.700, 59.622, -41.100
15342.664, 60.669, -51.676
15565.829, 61.596, -74.162
15792.239, 59.028, -102.264
16021.942, 54.787, -142.790
16254.986, 42.970, -73.969
16491.422, 43.261, -64.026
16731.295, 58.012, -39.212
16974.656, 57.450, -76.203
17221.559, 57.916, -85.797
17472.053, 59.073, -110.717
17726.189, 53.940, -154.475
17984.021, 50.344, -68.129
18245.605, 50.526, -99.661
18510.994, 49.257, -93.712
18780.242, 50.197, -78.503
19053.408, 56.174, -73.046
19330.547, 56.699, -112.158
19611.715, 55.070, -143.868
19896.975, 45.881, -178.564
