* Measurement data measured by REW V5.19
* Source: ASIO MOTU M Series, In 1
* Format: 1M Log Swept Sine, 2 sweeps at -3.0 dBFS  With no timing reference
* Dated: 19 Sep, 2020 2:56:07 PM
* REW Settings:
*  C-weighting compensation: Off
*  Target level: 75.0 dB
* Note: ; 
* Measurement: Sep 19 14:56:07
* Smoothing: None
* Frequency Step: 1/48 octave
* Start Frequency: 10.1 Hz
*
* Freq(Hz), SPL(dB), Phase(degrees)
10.145, 50.467, -34.732
10.293, 50.802, -34.944
10.443, 51.141, -35.482
10.595, 51.484, -36.497
10.749, 51.806, -37.881
10.905, 52.078, -39.626
11.064, 52.301, -41.665
11.225, 52.450, -43.831
11.388, 52.527, -46.094
11.554, 52.526, -48.184
11.722, 52.451, -50.080
11.892, 52.323, -51.470
12.065, 52.151, -52.346
12.241, 51.993, -52.492
12.419, 51.864, -51.990
12.599, 51.844, -50.963
12.782, 51.929, -49.679
12.968, 52.158, -48.573
13.157, 52.479, -47.909
13.348, 52.876, -47.986
13.543, 53.272, -48.761
13.740, 53.649, -50.250
13.939, 53.954, -52.155
14.142, 54.185, -54.337
14.348, 54.328, -56.532
14.557, 54.401, -58.487
14.768, 54.412, -60.075
14.983, 54.403, -61.105
15.201, 54.403, -61.621
15.422, 54.442, -61.631
15.646, 54.549, -61.402
15.874, 54.720, -61.105
16.105, 54.948, -60.926
16.339, 55.200, -60.983
16.577, 55.458, -61.227
16.818, 55.707, -61.608
17.063, 55.941, -62.000
17.311, 56.174, -62.352
17.563, 56.413, -62.683
17.818, 56.669, -63.053
18.077, 56.938, -63.600
18.340, 57.201, -64.410
18.607, 57.439, -65.484
18.877, 57.628, -66.758
19.152, 57.755, -68.078
19.431, 57.823, -69.231
19.713, 57.852, -70.059
20.000, 57.877, -70.509
20.291, 57.930, -70.654
20.586, 58.031, -70.686
20.885, 58.181, -70.846
21.189, 58.354, -71.299
21.497, 58.516, -72.043
21.810, 58.646, -72.929
22.127, 58.743, -73.751
22.449, 58.830, -74.352
22.776, 58.939, -74.706
23.107, 59.098, -74.944
23.443, 59.314, -75.292
23.784, 59.569, -75.952
24.130, 59.829, -76.996
24.481, 60.060, -78.354
24.837, 60.244, -79.848
25.198, 60.378, -81.271
25.565, 60.476, -82.454
25.937, 60.565, -83.321
26.314, 60.671, -83.918
26.697, 60.809, -84.397
27.085, 60.976, -84.934
27.479, 61.150, -85.632
27.879, 61.309, -86.466
28.284, 61.445, -87.317
28.696, 61.566, -88.084
29.113, 61.691, -88.762
29.537, 61.832, -89.452
29.966, 61.981, -90.261
30.402, 62.125, -91.203
30.844, 62.254, -92.194
31.293, 62.376, -93.145
31.748, 62.505, -94.043
32.210, 62.649, -94.948
32.678, 62.802, -95.909
33.154, 62.957, -96.918
33.636, 63.112, -97.935
34.125, 63.271, -98.962
34.621, 63.430, -100.056
35.125, 63.573, -101.271
35.636, 63.670, -102.539
36.154, 63.703, -103.589
36.680, 63.703, -104.058
37.214, 63.757, -103.859
37.755, 63.941, -103.602
38.304, 64.213, -104.151
38.861, 64.420, -105.694
39.427, 64.470, -107.427
40.000, 64.428, -108.404
40.582, 64.462, -108.675
41.172, 64.611, -109.263
41.771, 64.744, -110.613
42.379, 64.773, -112.010
42.995, 64.787, -112.771
43.620, 64.893, -113.377
44.255, 65.028, -114.510
44.898, 65.090, -115.832
45.552, 65.118, -116.708
46.214, 65.202, -117.386
46.886, 65.302, -118.402
47.568, 65.349, -119.495
48.260, 65.386, -120.294
48.962, 65.458, -121.097
49.674, 65.527, -122.083
50.397, 65.594, -123.046
51.130, 65.685, -124.233
51.874, 65.723, -125.799
52.628, 65.676, -127.052
53.394, 65.652, -127.746
54.170, 65.672, -128.544
54.958, 65.645, -129.355
55.758, 65.620, -129.680
56.569, 65.659, -129.993
57.391, 65.686, -130.608
58.226, 65.675, -130.991
59.073, 65.711, -131.085
59.932, 65.800, -131.413
60.804, 65.882, -131.962
61.688, 65.965, -132.533
62.586, 66.044, -133.187
63.496, 66.124, -133.776
64.420, 66.209, -134.536
65.357, 66.267, -135.226
66.307, 66.369, -136.192
67.272, 66.311, -137.675
68.250, 66.232, -137.406
69.243, 66.456, -138.002
70.250, 66.435, -140.001
71.272, 66.368, -140.207
72.309, 66.529, -140.799
73.360, 66.626, -142.448
74.427, 66.566, -143.762
75.510, 66.571, -144.145
76.608, 66.594, -145.243
77.723, 66.511, -145.741
78.853, 66.520, -146.202
80.000, 66.464, -146.822
81.164, 66.447, -147.181
82.344, 66.446, -147.542
83.542, 66.512, -148.093
84.757, 66.539, -148.727
85.990, 66.578, -149.760
87.241, 66.445, -149.830
88.510, 66.565, -149.852
89.797, 66.531, -150.470
91.103, 66.556, -151.245
92.428, 66.478, -151.679
93.773, 66.496, -152.173
95.137, 66.533, -152.858
96.520, 66.475, -153.645
97.924, 66.465, -154.012
99.349, 66.445, -154.302
100.794, 66.445, -154.916
102.260, 66.420, -155.283
103.747, 66.430, -155.874
105.256, 66.384, -156.453
106.787, 66.362, -156.603
108.340, 66.361, -157.017
109.916, 66.392, -157.443
111.515, 66.262, -157.904
113.137, 66.374, -158.131
114.783, 66.233, -158.512
116.452, 66.256, -158.875
118.146, 66.215, -158.976
119.865, 66.224, -159.365
121.608, 66.217, -159.855
123.377, 66.178, -160.102
125.171, 66.150, -160.335
126.992, 66.113, -160.453
128.839, 66.132, -160.234
130.713, 66.103, -161.415
132.615, 66.035, -161.571
134.543, 66.022, -161.807
136.500, 65.958, -161.964
138.486, 65.931, -162.146
140.500, 65.950, -162.504
142.544, 65.926, -162.729
144.617, 65.875, -162.991
146.721, 65.847, -163.114
148.855, 65.777, -163.511
151.020, 65.739, -163.456
153.217, 65.718, -163.734
155.445, 65.657, -163.744
157.706, 65.631, -163.831
160.000, 65.588, -164.076
162.327, 65.560, -163.980
164.688, 65.523, -163.946
167.084, 65.483, -164.159
169.514, 65.450, -164.174
171.980, 65.394, -164.405
174.481, 65.354, -164.475
177.019, 65.288, -164.571
179.594, 65.222, -164.874
182.206, 65.191, -164.302
184.856, 65.057, -164.256
187.545, 64.966, -164.232
190.273, 64.859, -163.782
193.041, 64.819, -163.282
195.849, 64.758, -162.793
198.697, 64.762, -162.115
201.587, 64.698, -161.558
204.520, 64.668, -160.641
207.494, 64.706, -160.213
210.512, 64.645, -159.223
213.574, 64.679, -158.868
216.681, 64.687, -158.139
219.833, 64.699, -157.539
223.030, 64.747, -156.803
226.274, 64.772, -156.107
229.565, 64.813, -155.251
232.905, 64.885, -154.547
236.292, 64.980, -153.802
239.729, 65.086, -153.107
243.216, 65.211, -152.355
246.754, 65.322, -151.706
250.343, 65.494, -151.400
253.984, 65.686, -150.975
257.678, 65.869, -150.807
261.426, 66.078, -151.059
265.229, 66.272, -151.316
269.087, 66.430, -151.913
273.001, 66.595, -152.893
276.972, 66.670, -153.862
281.000, 66.754, -154.575
285.088, 66.820, -155.564
289.234, 66.846, -156.449
293.441, 66.837, -157.402
297.710, 66.802, -158.095
302.040, 66.755, -158.761
306.433, 66.724, -159.164
310.890, 66.674, -159.598
315.412, 66.622, -159.925
320.000, 66.582, -160.218
324.655, 66.535, -160.413
329.377, 66.473, -160.560
334.168, 66.430, -160.696
339.028, 66.382, -160.714
343.959, 66.324, -160.742
348.962, 66.293, -160.792
354.038, 66.242, -160.678
359.188, 66.184, -160.551
364.412, 66.150, -160.446
369.713, 66.110, -160.234
375.090, 66.062, -160.091
380.546, 66.019, -159.754
386.081, 65.993, -159.563
391.697, 65.962, -159.257
397.395, 65.945, -158.943
403.175, 65.930, -158.584
409.039, 65.909, -158.235
414.989, 65.906, -157.853
421.025, 65.893, -157.489
427.149, 65.899, -157.201
433.362, 65.888, -156.927
439.665, 65.876, -156.652
446.060, 65.866, -156.280
452.548, 65.850, -155.864
459.131, 65.852, -155.432
465.809, 65.851, -154.988
472.584, 65.842, -154.431
479.458, 65.847, -153.882
486.432, 65.851, -153.428
493.507, 65.885, -153.068
500.686, 65.921, -152.603
507.968, 65.898, -152.431
515.357, 65.888, -151.569
522.853, 65.964, -150.974
530.458, 65.989, -150.695
538.174, 65.972, -150.825
546.002, 65.966, -150.167
553.943, 66.271, -149.851
562.001, 66.166, -149.934
570.175, 66.196, -149.445
578.469, 66.238, -149.689
586.883, 66.180, -149.271
595.419, 66.174, -148.164
604.080, 66.183, -148.019
612.866, 66.108, -147.682
621.780, 66.170, -145.887
630.824, 66.224, -145.473
640.000, 66.383, -145.421
649.309, 66.541, -143.890
658.753, 66.528, -143.395
668.335, 66.513, -144.422
678.056, 66.557, -142.663
687.919, 66.718, -142.014
697.925, 66.641, -142.338
708.076, 66.712, -141.353
718.376, 66.738, -140.556
728.825, 66.805, -140.332
739.426, 66.987, -139.931
750.181, 67.032, -137.496
761.093, 66.723, -138.268
772.163, 67.058, -137.888
783.394, 67.597, -139.152
794.789, 67.232, -136.729
806.349, 67.332, -136.467
818.078, 67.698, -134.710
829.977, 67.300, -138.390
842.050, 67.650, -134.829
854.297, 67.962, -138.321
866.724, 68.541, -139.286
879.330, 68.036, -134.942
892.120, 67.821, -131.985
905.097, 68.313, -134.085
918.262, 68.357, -130.592
931.618, 68.492, -131.864
945.169, 68.269, -132.605
958.917, 68.436, -131.894
972.864, 68.752, -131.761
987.015, 68.604, -131.948
1001.371, 68.740, -127.696
1015.937, 69.047, -130.573
1030.714, 69.026, -131.083
1045.706, 69.463, -129.648
1060.916, 69.397, -130.030
1076.347, 69.633, -130.350
1092.003, 69.647, -128.501
1107.887, 69.787, -128.726
1124.001, 70.067, -127.458
1140.350, 70.084, -127.690
1156.937, 70.190, -128.733
1173.765, 70.670, -127.442
1190.838, 70.590, -127.185
1208.159, 70.735, -128.516
1225.732, 70.923, -128.172
1243.561, 70.996, -129.349
1261.649, 71.204, -128.341
1280.000, 71.254, -128.452
1298.618, 71.331, -127.787
1317.507, 71.601, -129.494
1336.670, 71.647, -128.923
1356.113, 71.750, -128.868
1375.838, 71.902, -129.567
1395.850, 72.067, -129.364
1416.153, 72.074, -130.548
1436.751, 72.333, -130.277
1457.649, 72.349, -130.949
1478.851, 72.402, -131.137
1500.362, 72.499, -131.793
1522.185, 72.531, -132.988
1544.326, 72.451, -132.103
1566.789, 72.486, -132.865
1589.578, 72.577, -132.956
1612.699, 72.587, -132.815
1636.156, 72.648, -132.386
1659.955, 72.783, -132.828
1684.099, 72.673, -132.598
1708.595, 72.859, -132.703
1733.447, 72.714, -133.132
1758.661, 72.625, -132.421
1784.241, 72.773, -130.284
1810.193, 72.807, -130.591
1836.523, 72.860, -130.411
1863.236, 73.081, -129.271
1890.338, 73.189, -128.139
1917.833, 73.188, -126.219
1945.729, 73.433, -126.009
1974.030, 73.440, -124.143
2002.743, 73.795, -122.436
2031.873, 74.311, -122.349
2061.428, 74.544, -122.043
2091.412, 74.918, -122.094
2121.832, 75.399, -121.204
2152.695, 75.762, -122.609
2184.007, 76.174, -122.383
2215.774, 76.626, -123.131
2248.003, 77.052, -125.459
2280.701, 77.211, -127.369
2313.874, 77.548, -129.407
2347.530, 77.785, -131.163
2381.676, 78.047, -132.018
2416.318, 78.342, -135.866
2451.464, 78.446, -138.525
2487.122, 78.534, -140.083
2523.298, 78.405, -142.979
2560.000, 78.458, -145.142
2597.236, 78.399, -146.181
2635.014, 78.474, -148.519
2673.341, 78.565, -150.101
2712.226, 78.430, -152.309
2751.676, 78.340, -154.183
2791.700, 78.322, -156.347
2832.306, 78.098, -159.788
2873.503, 77.456, -155.841
2915.299, 77.933, -157.277
2957.703, 77.884, -159.740
3000.724, 77.810, -160.838
3044.370, 77.646, -161.658
3088.652, 77.519, -163.463
3133.577, 77.406, -164.352
3179.156, 77.209, -165.601
3225.398, 77.068, -166.679
3272.312, 76.824, -166.980
3319.909, 76.603, -167.430
3368.198, 76.456, -167.088
3417.190, 76.342, -167.126
3466.894, 76.183, -167.597
3517.321, 76.012, -167.948
3568.482, 75.770, -168.141
3620.387, 75.480, -167.827
3673.046, 75.150, -167.330
3726.472, 74.875, -165.227
3780.675, 74.643, -162.709
3835.666, 74.543, -159.322
3891.457, 74.658, -155.920
3948.060, 74.947, -152.841
4005.486, 75.322, -150.357
4063.747, 75.788, -148.499
4122.855, 76.311, -147.148
4182.824, 76.927, -146.646
4243.664, 77.605, -147.053
4305.390, 78.262, -148.775
4368.013, 78.853, -151.455
4431.547, 79.343, -154.934
4496.005, 79.718, -158.903
4561.401, 79.982, -163.496
4627.749, 80.056, -168.367
4695.061, 79.966, -173.175
4763.352, 79.726, -177.348
4832.637, 79.348, 179.579
4902.929, 78.945, 177.642
4974.244, 78.655, 177.083
5046.596, 78.543, 177.129
5120.000, 78.670, 176.445
5194.472, 78.856, 174.310
5270.027, 78.959, 171.280
5346.682, 78.973, 167.431
5424.451, 78.857, 163.149
5503.352, 78.613, 159.155
5583.399, 78.340, 155.667
5664.612, 78.006, 151.390
5747.006, 77.579, 147.180
5830.598, 77.070, 142.780
5915.406, 76.238, 138.563
6001.447, 75.302, 136.120
6088.740, 74.448, 134.649
6177.303, 73.629, 133.461
6267.154, 72.712, 133.063
6358.312, 71.980, 133.327
6450.796, 71.199, 132.581
6544.625, 70.161, 131.538
6639.818, 68.915, 132.613
6736.397, 67.630, 136.161
6834.380, 66.637, 142.461
6933.789, 66.066, 149.362
7034.643, 65.718, 154.600
7136.964, 65.362, 159.717
7240.773, 65.098, 164.960
7346.093, 64.810, 170.572
7452.944, 64.715, 177.646
7561.350, 65.081, -175.493
7671.332, 65.677, -170.525
7782.915, 66.360, -167.250
7896.120, 67.039, -165.408
8010.971, 67.762, -164.376
8127.493, 68.553, -164.205
8245.711, 69.545, -166.059
8365.647, 70.469, -171.529
8487.328, 70.984, -179.722
8610.779, 71.080, 171.276
8736.026, 71.069, 161.397
8863.095, 69.858, 148.906
8992.011, 68.343, 141.075
9122.803, 66.474, 135.763
9255.497, 64.508, 133.366
9390.121, 62.264, 134.343
9526.704, 60.351, 138.849
9665.273, 58.573, 145.223
9805.857, 56.908, 152.382
9948.487, 54.885, 161.484
10093.191, 52.663, -179.983
10240.000, 52.262, -149.073
10388.944, 54.891, -123.540
10540.055, 58.731, -114.795
10693.363, 61.562, -119.859
10848.902, 63.073, -127.499
11006.703, 64.006, -134.672
11166.799, 64.636, -140.502
11329.224, 65.248, -146.451
11494.012, 65.944, -153.008
11661.195, 66.791, -162.020
11830.812, 67.638, -177.237
12002.895, 67.176, 159.167
12177.480, 64.696, 140.596
12354.606, 61.787, 131.009
12534.309, 59.193, 126.129
12716.624, 56.350, 120.292
12901.592, 53.023, 124.426
13089.250, 51.365, 135.390
13279.637, 50.994, 138.698
13472.794, 50.701, 135.498
13668.760, 50.033, 127.186
13867.577, 49.406, 116.313
14069.285, 49.002, 98.320
14273.928, 48.105, 73.704
14481.547, 46.858, 47.431
14692.186, 44.986, 21.537
14905.889, 41.845, 1.968
15122.700, 37.507, 6.681
15342.664, 35.500, 41.064
15565.829, 41.218, 70.525
15792.239, 45.164, 63.008
16021.942, 47.339, 56.223
16254.986, 48.729, 54.456
16491.422, 50.345, 48.631
16731.295, 51.325, 51.242
16974.656, 54.412, 47.312
17221.559, 55.722, 27.603
17472.053, 54.668, 16.357
17726.189, 53.747, 15.778
17984.021, 53.949, 20.832
18245.605, 54.891, 21.803
18510.994, 56.023, 20.245
18780.242, 57.385, 15.420
19053.408, 58.500, 4.777
19330.547, 58.979, -7.751
19611.715, 58.991, -21.772
19896.975, 58.232, -35.474
