* Measurement data measured by REW V5.19
* Source: ASIO MOTU M Series, In 1
* Format: 1M Log Swept Sine, 1 sweep at -10.0 dBFS  With no timing reference
* Dated: 30 Apr, 2021 8:11:15 PM
* REW Settings:
*  C-weighting compensation: Off
*  Target level: 75.0 dB
* Note: ; 
* Measurement: Apr 30 20:11:15
* Smoothing: 1/48 octave
* Frequency Step: 1/48 octave
* Start Frequency: 10.1 Hz
*
* Freq(Hz), SPL(dB), Phase(degrees)
10.145, 46.930, 139.241
10.293, 47.042, 138.840
10.443, 47.159, 138.334
10.595, 47.334, 137.711
10.749, 47.519, 137.108
10.905, 47.667, 136.751
11.064, 47.806, 136.505
11.225, 47.972, 136.199
11.388, 48.155, 135.874
11.554, 48.345, 135.542
11.722, 48.544, 135.192
11.892, 48.750, 134.779
12.065, 48.963, 134.298
12.241, 49.181, 133.710
12.419, 49.401, 133.022
12.599, 49.614, 132.247
12.782, 49.819, 131.384
12.968, 50.013, 130.430
13.157, 50.192, 129.428
13.348, 50.351, 128.402
13.543, 50.493, 127.409
13.740, 50.615, 126.466
13.939, 50.726, 125.643
14.142, 50.828, 124.949
14.348, 50.932, 124.417
14.557, 51.047, 124.011
14.768, 51.179, 123.717
14.983, 51.334, 123.454
15.201, 51.509, 123.167
15.422, 51.702, 122.802
15.646, 51.901, 122.318
15.874, 52.098, 121.729
16.105, 52.285, 121.051
16.339, 52.458, 120.351
16.577, 52.620, 119.672
16.818, 52.772, 119.049
17.063, 52.924, 118.502
17.311, 53.081, 118.002
17.563, 53.245, 117.521
17.818, 53.415, 117.022
18.077, 53.587, 116.479
18.340, 53.756, 115.905
18.607, 53.918, 115.325
18.877, 54.077, 114.766
19.152, 54.235, 114.253
19.431, 54.399, 113.771
19.713, 54.573, 113.283
20.000, 54.754, 112.746
20.291, 54.938, 112.135
20.586, 55.117, 111.450
20.885, 55.287, 110.724
21.189, 55.446, 110.005
21.497, 55.600, 109.331
21.810, 55.756, 108.704
22.127, 55.917, 108.098
22.449, 56.083, 107.479
22.776, 56.251, 106.824
23.107, 56.417, 106.136
23.443, 56.576, 105.441
23.784, 56.730, 104.771
24.130, 56.883, 104.144
24.481, 57.039, 103.556
24.837, 57.201, 102.985
25.198, 57.370, 102.400
25.565, 57.543, 101.772
25.937, 57.716, 101.089
26.314, 57.884, 100.355
26.697, 58.044, 99.596
27.085, 58.196, 98.848
27.479, 58.346, 98.131
27.879, 58.499, 97.433
28.284, 58.657, 96.711
28.696, 58.817, 95.928
29.113, 58.971, 95.085
29.537, 59.115, 94.226
29.966, 59.252, 93.403
30.402, 59.390, 92.630
30.844, 59.535, 91.875
31.293, 59.687, 91.086
31.748, 59.840, 90.243
32.210, 59.987, 89.366
32.678, 60.127, 88.496
33.154, 60.263, 87.660
33.636, 60.401, 86.855
34.125, 60.542, 86.053
34.621, 60.684, 85.229
35.125, 60.821, 84.385
35.636, 60.951, 83.556
36.154, 61.081, 82.768
36.680, 61.218, 81.983
37.214, 61.359, 81.129
37.755, 61.490, 80.207
38.304, 61.608, 79.321
38.861, 61.732, 78.544
39.427, 61.884, 77.762
40.000, 62.055, 76.768
40.582, 62.208, 75.510
41.172, 62.321, 74.189
41.771, 62.408, 73.027
42.379, 62.498, 72.062
42.995, 62.610, 71.154
43.620, 62.735, 70.176
44.255, 62.859, 69.102
44.898, 62.970, 67.969
45.552, 63.066, 66.833
46.214, 63.149, 65.758
46.886, 63.233, 64.782
47.568, 63.336, 63.823
48.260, 63.452, 62.688
48.962, 63.550, 61.329
49.674, 63.614, 59.961
50.397, 63.672, 58.697
51.130, 63.736, 57.386
51.874, 63.786, 55.999
52.628, 63.825, 54.664
53.394, 63.868, 53.311
54.170, 63.898, 51.841
54.958, 63.900, 50.394
55.758, 63.894, 49.003
56.569, 63.876, 47.552
57.391, 63.830, 46.081
58.226, 63.759, 44.643
59.073, 63.658, 43.203
59.932, 63.510, 41.835
60.804, 63.311, 40.660
61.688, 63.049, 39.852
62.586, 62.735, 39.756
63.496, 62.423, 40.707
64.420, 62.219, 42.871
65.357, 62.307, 45.754
66.307, 62.754, 47.330
67.272, 63.239, 45.942
68.250, 63.416, 42.628
69.243, 63.231, 39.496
70.250, 62.819, 37.911
71.272, 62.362, 38.279
72.309, 62.023, 40.297
73.360, 61.898, 43.152
74.427, 61.984, 46.023
75.510, 62.236, 48.320
76.608, 62.571, 49.768
77.723, 62.948, 50.401
78.853, 63.311, 50.235
80.000, 63.646, 49.664
81.164, 63.962, 48.658
82.344, 64.228, 47.369
83.542, 64.453, 45.927
84.757, 64.633, 44.383
85.990, 64.770, 42.654
87.241, 64.812, 40.837
88.510, 64.755, 39.571
89.797, 64.716, 39.261
91.103, 64.790, 39.246
92.428, 64.937, 38.950
93.773, 65.098, 38.182
95.137, 65.226, 37.167
96.520, 65.354, 36.022
97.924, 65.453, 34.623
99.349, 65.520, 33.296
100.794, 65.574, 32.027
102.260, 65.610, 30.866
103.747, 65.646, 29.797
105.256, 65.688, 28.614
106.787, 65.696, 27.370
108.340, 65.693, 26.282
109.916, 65.697, 25.292
111.515, 65.695, 24.229
113.137, 65.676, 23.188
114.783, 65.659, 22.192
116.452, 65.638, 21.095
118.146, 65.605, 20.215
119.865, 65.583, 19.248
121.608, 65.515, 18.550
123.377, 65.477, 17.923
125.171, 65.430, 17.186
126.992, 65.383, 16.481
128.839, 65.342, 15.747
130.713, 65.294, 15.048
132.615, 65.246, 14.451
134.543, 65.208, 13.830
136.500, 65.144, 13.236
138.486, 65.083, 12.757
140.500, 65.026, 12.280
142.544, 64.975, 11.751
144.617, 64.925, 11.314
146.721, 64.876, 10.797
148.855, 64.794, 10.451
151.020, 64.740, 10.103
153.217, 64.697, 9.651
155.445, 64.650, 9.304
157.706, 64.601, 9.212
160.000, 64.572, 9.159
162.327, 64.531, 8.242
164.688, 64.403, 7.963
167.084, 64.341, 7.823
169.514, 64.300, 7.531
171.980, 64.221, 7.298
174.481, 64.182, 7.106
177.019, 64.144, 6.846
179.594, 64.066, 6.675
182.206, 63.992, 6.568
184.856, 63.928, 6.578
187.545, 63.895, 6.515
190.273, 63.849, 6.435
193.041, 63.781, 6.263
195.849, 63.723, 6.113
198.697, 63.656, 5.704
201.587, 63.516, 5.561
204.520, 63.396, 6.201
207.494, 63.427, 6.906
210.512, 63.467, 6.887
213.574, 63.438, 6.707
216.681, 63.368, 6.581
219.833, 63.295, 6.700
223.030, 63.252, 6.938
226.274, 63.220, 7.162
229.565, 63.210, 7.431
232.905, 63.173, 7.482
236.292, 63.143, 7.324
239.729, 63.123, 7.367
243.216, 63.088, 7.525
246.754, 63.017, 7.702
250.343, 62.977, 7.946
253.984, 62.948, 8.376
257.678, 62.891, 8.667
261.426, 62.842, 9.050
265.229, 62.814, 9.760
269.087, 62.782, 10.434
273.001, 62.746, 11.358
276.972, 62.763, 12.603
281.000, 62.853, 13.997
285.088, 63.056, 15.538
289.234, 63.435, 16.798
293.441, 63.886, 16.360
297.710, 64.223, 14.287
302.040, 64.338, 11.859
306.433, 64.313, 9.988
310.890, 64.202, 8.524
315.412, 64.079, 7.777
320.000, 63.961, 7.416
324.655, 63.858, 7.165
329.377, 63.785, 6.833
334.168, 63.696, 6.746
339.028, 63.621, 6.681
343.959, 63.556, 6.708
348.962, 63.489, 6.801
354.038, 63.467, 7.002
359.188, 63.440, 7.107
364.412, 63.394, 7.226
369.713, 63.353, 7.346
375.090, 63.331, 7.509
380.546, 63.314, 7.597
386.081, 63.302, 7.697
391.697, 63.281, 7.873
397.395, 63.279, 8.059
403.175, 63.271, 8.142
409.039, 63.256, 8.159
414.989, 63.247, 8.232
421.025, 63.228, 8.360
427.149, 63.220, 8.504
433.362, 63.205, 8.563
439.665, 63.183, 8.681
446.060, 63.186, 8.852
452.548, 63.177, 9.002
459.131, 63.156, 9.166
465.809, 63.133, 9.278
472.584, 63.131, 9.512
479.458, 63.132, 9.667
486.432, 63.119, 9.731
493.507, 63.097, 9.926
500.686, 63.095, 10.231
507.968, 63.089, 10.435
515.357, 63.089, 10.680
522.853, 63.080, 10.880
530.458, 63.074, 11.241
538.174, 63.080, 11.635
546.002, 63.106, 11.973
553.943, 63.141, 12.307
562.001, 63.191, 12.600
570.175, 63.259, 12.796
578.469, 63.336, 12.772
586.883, 63.420, 12.140
595.419, 63.361, 11.068
604.080, 63.171, 10.955
612.866, 63.031, 11.763
621.780, 62.992, 12.730
630.824, 63.021, 13.566
640.000, 63.066, 14.202
649.309, 63.122, 14.724
658.753, 63.184, 15.202
668.335, 63.266, 15.605
678.056, 63.339, 15.885
687.919, 63.411, 16.020
697.925, 63.477, 16.221
708.076, 63.539, 16.227
718.376, 63.584, 16.246
728.825, 63.641, 16.306
739.426, 63.687, 16.289
750.181, 63.732, 16.356
761.093, 63.782, 16.364
772.163, 63.837, 16.332
783.394, 63.879, 16.349
794.789, 63.946, 16.403
806.349, 64.002, 16.373
818.078, 64.073, 16.269
829.977, 64.137, 16.142
842.050, 64.225, 16.027
854.297, 64.328, 15.652
866.724, 64.407, 15.025
879.330, 64.485, 14.463
892.120, 64.561, 13.596
905.097, 64.602, 12.503
918.262, 64.607, 11.222
931.618, 64.575, 9.894
945.169, 64.469, 8.357
958.917, 64.310, 7.118
972.864, 64.092, 6.004
987.015, 63.792, 5.282
1001.371, 63.511, 5.309
1015.937, 63.238, 5.451
1030.714, 62.953, 5.940
1045.706, 62.683, 7.086
1060.916, 62.537, 8.451
1076.347, 62.415, 9.552
1092.003, 62.308, 10.404
1107.887, 62.190, 11.477
1124.001, 62.099, 12.616
1140.350, 62.036, 13.607
1156.937, 61.961, 14.388
1173.765, 61.819, 15.356
1190.838, 61.719, 16.664
1208.159, 61.601, 18.371
1225.732, 61.582, 20.094
1243.561, 61.584, 21.650
1261.649, 61.595, 23.133
1280.000, 61.650, 24.575
1298.618, 61.665, 25.834
1317.507, 61.743, 27.334
1336.670, 61.833, 28.329
1356.113, 61.863, 29.386
1375.838, 61.927, 30.317
1395.850, 61.921, 31.299
1416.153, 61.927, 32.721
1436.751, 61.968, 34.072
1457.649, 62.025, 35.623
1478.851, 62.112, 37.342
1500.362, 62.253, 38.796
1522.185, 62.405, 40.179
1544.326, 62.576, 41.211
1566.789, 62.765, 42.035
1589.578, 62.870, 42.163
1612.699, 62.825, 42.728
1636.156, 62.779, 44.327
1659.955, 62.798, 46.465
1684.099, 62.933, 48.655
1708.595, 63.099, 50.817
1733.447, 63.344, 52.711
1758.661, 63.542, 54.473
1784.241, 63.820, 56.237
1810.193, 64.004, 57.902
1836.523, 64.280, 60.435
1863.236, 64.698, 62.984
1890.338, 65.229, 64.744
1917.833, 65.770, 65.973
1945.729, 66.370, 66.436
1974.030, 66.862, 66.251
2002.743, 67.341, 66.026
2031.873, 67.811, 65.507
2061.428, 68.191, 64.625
2091.412, 68.555, 64.110
2121.832, 68.873, 63.578
2152.695, 69.234, 63.234
2184.007, 69.592, 63.065
2215.774, 70.020, 62.713
2248.003, 70.423, 61.961
2280.701, 70.792, 61.611
2313.874, 71.319, 61.409
2347.530, 71.901, 60.112
2381.676, 72.423, 58.262
2416.318, 72.915, 56.018
2451.464, 73.375, 53.575
2487.122, 73.823, 50.888
2523.298, 74.222, 47.655
2560.000, 74.593, 44.261
2597.236, 74.869, 40.373
2635.014, 75.058, 36.549
2673.341, 75.184, 32.904
2712.226, 75.246, 29.465
2751.676, 75.319, 26.623
2791.700, 75.498, 23.683
2832.306, 75.646, 19.600
2873.503, 75.628, 15.670
2915.299, 75.646, 12.263
2957.703, 75.718, 8.294
3000.724, 75.695, 3.410
3044.370, 75.530, -1.765
3088.652, 75.202, -6.897
3133.577, 74.739, -11.444
3179.156, 74.203, -15.514
3225.398, 73.603, -19.089
3272.312, 72.927, -22.378
3319.909, 72.156, -25.143
3368.198, 71.285, -27.270
3417.190, 70.307, -28.651
3466.894, 69.158, -28.949
3517.321, 67.812, -26.884
3568.482, 66.363, -20.715
3620.387, 65.350, -8.106
3673.046, 65.947, 7.232
3726.472, 67.911, 15.116
3780.675, 69.642, 12.509
3835.666, 70.438, 4.855
3891.457, 70.381, -2.629
3948.060, 69.785, -7.143
4005.486, 69.097, -8.049
4063.747, 68.608, -6.850
4122.855, 68.379, -5.057
4182.824, 68.290, -3.684
4243.664, 68.277, -2.333
4305.390, 68.400, -1.570
4368.013, 68.493, -1.983
4431.547, 68.463, -2.545
4496.005, 68.398, -2.794
4561.401, 68.341, -2.967
4627.749, 68.282, -3.162
4695.061, 68.194, -3.557
4763.352, 68.010, -3.676
4832.637, 67.805, -2.856
4902.929, 67.680, -1.087
4974.244, 67.751, 1.395
5046.596, 68.113, 3.685
5120.000, 68.729, 4.543
5194.472, 69.472, 3.245
5270.027, 70.235, -0.723
5346.682, 70.795, -8.249
5424.451, 70.762, -18.350
5503.352, 70.065, -28.422
5583.399, 68.743, -37.037
5664.612, 66.799, -42.051
5747.006, 64.487, -41.245
5830.598, 62.252, -33.781
5915.406, 60.696, -21.112
6001.447, 60.092, -6.848
6088.740, 60.328, 6.424
6177.303, 61.102, 16.696
6267.154, 62.022, 23.887
6358.312, 62.974, 29.484
6450.796, 64.038, 33.688
6544.625, 65.175, 36.363
6639.818, 66.379, 37.227
6736.397, 67.552, 35.978
6834.380, 68.581, 32.561
6933.789, 69.296, 27.402
7034.643, 69.593, 22.344
7136.964, 69.732, 19.402
7240.773, 70.131, 17.489
7346.093, 70.703, 13.509
7452.944, 70.996, 7.316
7561.350, 70.857, 1.357
7671.332, 70.481, -2.119
7782.915, 70.302, -2.758
7896.120, 70.718, -2.978
8010.971, 71.592, -6.791
8127.493, 72.358, -15.676
8245.711, 72.669, -28.439
8365.647, 72.323, -44.387
8487.328, 70.953, -61.286
8610.779, 68.559, -75.141
8736.026, 65.419, -85.000
8863.095, 61.389, -92.217
8992.011, 55.016, -77.331
9122.803, 52.127, -2.843
9255.497, 57.366, 23.312
9390.121, 59.850, 19.341
9526.704, 60.835, 16.514
9665.273, 61.568, 17.803
9805.857, 62.819, 20.249
9948.487, 64.483, 16.415
10093.191, 65.108, 5.238
10240.000, 64.322, -3.869
10388.944, 62.889, -2.733
10540.055, 62.653, 6.598
10693.363, 64.046, 14.024
10848.902, 66.208, 12.622
11006.703, 67.673, 2.109
11166.799, 68.391, -10.375
11329.224, 68.782, -24.209
11494.012, 68.692, -41.729
11661.195, 67.408, -62.103
11830.812, 64.495, -74.945
12002.895, 61.431, -76.325
12177.480, 59.015, -73.050
12354.606, 57.516, -64.639
12534.309, 57.542, -60.228
12716.624, 57.867, -64.535
12901.592, 57.404, -75.172
13089.250, 56.168, -81.579
13279.637, 56.275, -88.116
13472.794, 56.408, -107.957
13668.760, 55.079, -131.112
13867.577, 53.054, -146.831
14069.285, 52.210, -153.305
14273.928, 53.348, -161.641
14481.547, 54.993, -173.412
14692.186, 56.605, 170.601
14905.889, 57.286, 156.065
15122.700, 58.021, 147.098
15342.664, 59.082, 139.624
15565.829, 60.460, 130.571
15792.239, 61.346, 116.792
16021.942, 61.283, 106.277
16254.986, 61.916, 98.347
16491.422, 62.009, 84.909
16731.295, 61.450, 74.305
16974.656, 60.493, 64.516
17221.559, 58.943, 63.225
17472.053, 59.133, 66.070
17726.189, 59.790, 56.627
17984.021, 58.747, 42.473
18245.605, 56.571, 39.766
18510.994, 55.790, 39.307
18780.242, 54.479, 30.562
19053.408, 51.346, 35.307
19330.547, 51.189, 52.132
19611.715, 51.864, 45.984
19896.975, 50.358, 40.857
